{
  "entry" : [
    {
      "request" : {
        "method" : "PUT",
        "url" : "Patient/3D4E56EA-2506-47D4-9753-2E6384A547F1"
      },
      "resource" : {
        "id" : "3D4E56EA-2506-47D4-9753-2E6384A547F1",
        "name" : [
          {
            "family" : "Lopez",
            "given" : [
              "Camila"
            ],
            "text" : "Camila Lopez"
          }
        ],
        "resourceType" : "Patient"
      }
    },
    {
      "request" : {
        "method" : "PUT",
        "url" : "Provenance/09102B69-980E-4BC4-8CE2-022BF453AF31"
      },
      "resource" : {
        "agent" : [
          {
            "type" : {
              "coding" : [
                {
                  "code" : "author",
                  "display" : "Author",
                  "system" : "http://terminology.hl7.org/CodeSystem/provenance-participant-type"
                }
              ]
            },
            "who" : {
              "display" : "Camila Lopez",
              "reference" : "Patient/3D4E56EA-2506-47D4-9753-2E6384A547F1"
            }
          },
          {
            "type" : {
              "coding" : [
                {
                  "code" : "transmitter",
                  "display" : "Transmitter",
                  "system" : "http://hl7.org/fhir/us/core/CodeSystem/us-core-provenance-participant-type"
                }
              ]
            },
            "who" : {
              "display" : "Mountain Lotus WellBeing"
            }
          }
        ],
        "recorded" : "2024-12-28T13:28:54.147771954-07:00",
        "resourceType" : "Provenance",
        "target" : [
          {
            "display" : "Camila Lopez",
            "reference" : "Patient/3D4E56EA-2506-47D4-9753-2E6384A547F1"
          }
        ]
      }
    },
    {
      "request" : {
        "method" : "PUT",
        "url" : "Observation/DC6930E3-EF6E-49E3-A7C1-982CD8E17E77"
      },
      "resource" : {
        "category" : [
          {
            "coding" : [
              {
                "code" : "survey",
                "display" : "Survey",
                "system" : "http://terminology.hl7.org/CodeSystem/observation-category"
              }
            ]
          },
          {
            "coding" : [
              {
                "code" : "wellbeing-assessment",
                "display" : "Well-Being Assessment",
                "system" : "http://hl7.org/fhir/us/pco/CodeSystem/wellbeing-concepts"
              }
            ]
          }
        ],
        "code" : {
          "coding" : [
            {
              "code" : "mind",
              "display" : "Healthy Mind",
              "system" : "http://mtnlotus.com/fhir/mlw/CodeSystem/wellbeing-concepts"
            }
          ]
        },
        "component" : [
          {
            "code" : {
              "coding" : [
                {
                  "code" : "now-rating",
                  "display" : "Now Rating",
                  "system" : "http://hl7.org/fhir/us/pco/CodeSystem/wellbeing-concepts"
                }
              ]
            },
            "valueInteger" : 3
          },
          {
            "code" : {
              "coding" : [
                {
                  "code" : "future-rating",
                  "display" : "Future Rating",
                  "system" : "http://hl7.org/fhir/us/pco/CodeSystem/wellbeing-concepts"
                }
              ]
            },
            "valueInteger" : 7
          }
        ],
        "derivedFrom" : [
          {
            "display" : "My Lotus Lifestyle"
          }
        ],
        "effectiveDateTime" : "2024-10-09T09:45:46.770601987-07:00",
        "id" : "DC6930E3-EF6E-49E3-A7C1-982CD8E17E77",
        "meta" : {
          "profile" : [
            "http://hl7.org/fhir/us/pco/StructureDefinition/pco-what-matters-assessment"
          ]
        },
        "performer" : [
          {
            "display" : "Camila Lopez",
            "reference" : "Patient/3D4E56EA-2506-47D4-9753-2E6384A547F1"
          }
        ],
        "resourceType" : "Observation",
        "status" : "final",
        "subject" : {
          "display" : "Camila Lopez",
          "reference" : "Patient/3D4E56EA-2506-47D4-9753-2E6384A547F1"
        }
      }
    },
    {
      "request" : {
        "method" : "PUT",
        "url" : "Observation/0CC1F4BA-BF7A-49CD-91EA-47CCFB190823"
      },
      "resource" : {
        "category" : [
          {
            "coding" : [
              {
                "code" : "survey",
                "display" : "Survey",
                "system" : "http://terminology.hl7.org/CodeSystem/observation-category"
              }
            ]
          },
          {
            "coding" : [
              {
                "code" : "wellbeing-assessment",
                "display" : "Well-Being Assessment",
                "system" : "http://hl7.org/fhir/us/pco/CodeSystem/wellbeing-concepts"
              }
            ]
          }
        ],
        "code" : {
          "coding" : [
            {
              "code" : "body",
              "display" : "Healthy Body",
              "system" : "http://mtnlotus.com/fhir/mlw/CodeSystem/wellbeing-concepts"
            }
          ]
        },
        "component" : [
          {
            "code" : {
              "coding" : [
                {
                  "code" : "now-rating",
                  "display" : "Now Rating",
                  "system" : "http://hl7.org/fhir/us/pco/CodeSystem/wellbeing-concepts"
                }
              ]
            },
            "valueInteger" : 4
          },
          {
            "code" : {
              "coding" : [
                {
                  "code" : "future-rating",
                  "display" : "Future Rating",
                  "system" : "http://hl7.org/fhir/us/pco/CodeSystem/wellbeing-concepts"
                }
              ]
            },
            "valueInteger" : 8
          }
        ],
        "derivedFrom" : [
          {
            "display" : "My Lotus Lifestyle"
          }
        ],
        "effectiveDateTime" : "2024-10-01T09:47:53.594660043-07:00",
        "id" : "0CC1F4BA-BF7A-49CD-91EA-47CCFB190823",
        "meta" : {
          "profile" : [
            "http://hl7.org/fhir/us/pco/StructureDefinition/pco-what-matters-assessment"
          ]
        },
        "performer" : [
          {
            "display" : "Camila Lopez",
            "reference" : "Patient/3D4E56EA-2506-47D4-9753-2E6384A547F1"
          }
        ],
        "resourceType" : "Observation",
        "status" : "final",
        "subject" : {
          "display" : "Camila Lopez",
          "reference" : "Patient/3D4E56EA-2506-47D4-9753-2E6384A547F1"
        }
      }
    },
    {
      "request" : {
        "method" : "PUT",
        "url" : "Observation/8EA49FAB-BB38-4F7F-8772-A7A1045B61CB"
      },
      "resource" : {
        "category" : [
          {
            "coding" : [
              {
                "code" : "survey",
                "display" : "Survey",
                "system" : "http://terminology.hl7.org/CodeSystem/observation-category"
              }
            ]
          },
          {
            "coding" : [
              {
                "code" : "wellbeing-assessment",
                "display" : "Well-Being Assessment",
                "system" : "http://hl7.org/fhir/us/pco/CodeSystem/wellbeing-concepts"
              }
            ]
          }
        ],
        "code" : {
          "text" : "Managing Conditions & Symptoms"
        },
        "component" : [
          {
            "code" : {
              "coding" : [
                {
                  "code" : "now-rating",
                  "display" : "Now Rating",
                  "system" : "http://hl7.org/fhir/us/pco/CodeSystem/wellbeing-concepts"
                }
              ]
            },
            "valueInteger" : 4
          },
          {
            "code" : {
              "coding" : [
                {
                  "code" : "future-rating",
                  "display" : "Future Rating",
                  "system" : "http://hl7.org/fhir/us/pco/CodeSystem/wellbeing-concepts"
                }
              ]
            },
            "valueInteger" : 7
          }
        ],
        "derivedFrom" : [
          {
            "display" : "NCQA Health Outcomes"
          }
        ],
        "effectiveDateTime" : "2024-07-09T15:20:37.657595038-07:00",
        "id" : "8EA49FAB-BB38-4F7F-8772-A7A1045B61CB",
        "meta" : {
          "profile" : [
            "http://hl7.org/fhir/us/pco/StructureDefinition/pco-what-matters-assessment"
          ]
        },
        "performer" : [
          {
            "display" : "Camila Lopez",
            "reference" : "Patient/3D4E56EA-2506-47D4-9753-2E6384A547F1"
          }
        ],
        "resourceType" : "Observation",
        "status" : "final",
        "subject" : {
          "display" : "Camila Lopez",
          "reference" : "Patient/3D4E56EA-2506-47D4-9753-2E6384A547F1"
        }
      }
    },
    {
      "request" : {
        "method" : "PUT",
        "url" : "Observation/4C9D0B56-AAEF-48C7-A6EB-8E6037A5B2BC"
      },
      "resource" : {
        "category" : [
          {
            "coding" : [
              {
                "code" : "survey",
                "display" : "Survey",
                "system" : "http://terminology.hl7.org/CodeSystem/observation-category"
              }
            ]
          },
          {
            "coding" : [
              {
                "code" : "wellbeing-assessment",
                "display" : "Well-Being Assessment",
                "system" : "http://hl7.org/fhir/us/pco/CodeSystem/wellbeing-concepts"
              }
            ]
          }
        ],
        "code" : {
          "text" : "Housing"
        },
        "component" : [
          {
            "code" : {
              "coding" : [
                {
                  "code" : "now-rating",
                  "display" : "Now Rating",
                  "system" : "http://hl7.org/fhir/us/pco/CodeSystem/wellbeing-concepts"
                }
              ]
            },
            "valueInteger" : 7
          }
        ],
        "derivedFrom" : [
          {
            "display" : "NCQA Health Outcomes"
          }
        ],
        "effectiveDateTime" : "2024-07-11T15:48:33.562185049-07:00",
        "id" : "4C9D0B56-AAEF-48C7-A6EB-8E6037A5B2BC",
        "meta" : {
          "profile" : [
            "http://hl7.org/fhir/us/pco/StructureDefinition/pco-what-matters-assessment"
          ]
        },
        "performer" : [
          {
            "display" : "Camila Lopez",
            "reference" : "Patient/3D4E56EA-2506-47D4-9753-2E6384A547F1"
          }
        ],
        "resourceType" : "Observation",
        "status" : "final",
        "subject" : {
          "display" : "Camila Lopez",
          "reference" : "Patient/3D4E56EA-2506-47D4-9753-2E6384A547F1"
        }
      }
    },
    {
      "request" : {
        "method" : "PUT",
        "url" : "Observation/63F4B077-B025-46B6-AAA7-B9F35E8A953C"
      },
      "resource" : {
        "category" : [
          {
            "coding" : [
              {
                "code" : "survey",
                "display" : "Survey",
                "system" : "http://terminology.hl7.org/CodeSystem/observation-category"
              }
            ]
          },
          {
            "coding" : [
              {
                "code" : "wellbeing-assessment",
                "display" : "Well-Being Assessment",
                "system" : "http://hl7.org/fhir/us/pco/CodeSystem/wellbeing-concepts"
              }
            ]
          }
        ],
        "code" : {
          "text" : "Access to Services & Supports"
        },
        "component" : [
          {
            "code" : {
              "coding" : [
                {
                  "code" : "future-rating",
                  "display" : "Future Rating",
                  "system" : "http://hl7.org/fhir/us/pco/CodeSystem/wellbeing-concepts"
                }
              ]
            },
            "valueInteger" : 8
          }
        ],
        "derivedFrom" : [
          {
            "display" : "NCQA Health Outcomes"
          }
        ],
        "effectiveDateTime" : "2024-07-11T15:49:24.766306042-07:00",
        "id" : "63F4B077-B025-46B6-AAA7-B9F35E8A953C",
        "meta" : {
          "profile" : [
            "http://hl7.org/fhir/us/pco/StructureDefinition/pco-what-matters-assessment"
          ]
        },
        "performer" : [
          {
            "display" : "Camila Lopez",
            "reference" : "Patient/3D4E56EA-2506-47D4-9753-2E6384A547F1"
          }
        ],
        "resourceType" : "Observation",
        "status" : "final",
        "subject" : {
          "display" : "Camila Lopez",
          "reference" : "Patient/3D4E56EA-2506-47D4-9753-2E6384A547F1"
        }
      }
    },
    {
      "request" : {
        "method" : "PUT",
        "url" : "Observation/6DA1E373-05BA-4BCE-848C-5A48B7DC343E"
      },
      "resource" : {
        "category" : [
          {
            "coding" : [
              {
                "code" : "survey",
                "display" : "Survey",
                "system" : "http://terminology.hl7.org/CodeSystem/observation-category"
              }
            ]
          },
          {
            "coding" : [
              {
                "code" : "wellbeing-assessment",
                "display" : "Well-Being Assessment",
                "system" : "http://hl7.org/fhir/us/pco/CodeSystem/wellbeing-concepts"
              }
            ]
          }
        ],
        "code" : {
          "text" : "Physical Function"
        },
        "component" : [
          {
            "code" : {
              "coding" : [
                {
                  "code" : "now-rating",
                  "display" : "Now Rating",
                  "system" : "http://hl7.org/fhir/us/pco/CodeSystem/wellbeing-concepts"
                }
              ]
            },
            "valueInteger" : 5
          },
          {
            "code" : {
              "coding" : [
                {
                  "code" : "future-rating",
                  "display" : "Future Rating",
                  "system" : "http://hl7.org/fhir/us/pco/CodeSystem/wellbeing-concepts"
                }
              ]
            },
            "valueInteger" : 8
          }
        ],
        "derivedFrom" : [
          {
            "display" : "NCQA Health Outcomes"
          }
        ],
        "effectiveDateTime" : "2024-07-12T14:39:11.06685996-07:00",
        "id" : "6DA1E373-05BA-4BCE-848C-5A48B7DC343E",
        "meta" : {
          "profile" : [
            "http://hl7.org/fhir/us/pco/StructureDefinition/pco-what-matters-assessment"
          ]
        },
        "performer" : [
          {
            "display" : "Camila Lopez",
            "reference" : "Patient/3D4E56EA-2506-47D4-9753-2E6384A547F1"
          }
        ],
        "resourceType" : "Observation",
        "status" : "final",
        "subject" : {
          "display" : "Camila Lopez",
          "reference" : "Patient/3D4E56EA-2506-47D4-9753-2E6384A547F1"
        }
      }
    },
    {
      "request" : {
        "method" : "PUT",
        "url" : "Provenance/B12561CF-F38D-4591-B0D7-223AE93A0061"
      },
      "resource" : {
        "agent" : [
          {
            "type" : {
              "coding" : [
                {
                  "code" : "author",
                  "display" : "Author",
                  "system" : "http://terminology.hl7.org/CodeSystem/provenance-participant-type"
                }
              ]
            },
            "who" : {
              "display" : "Camila Lopez",
              "reference" : "Patient/3D4E56EA-2506-47D4-9753-2E6384A547F1"
            }
          },
          {
            "type" : {
              "coding" : [
                {
                  "code" : "transmitter",
                  "display" : "Transmitter",
                  "system" : "http://hl7.org/fhir/us/core/CodeSystem/us-core-provenance-participant-type"
                }
              ]
            },
            "who" : {
              "display" : "Mountain Lotus WellBeing"
            }
          }
        ],
        "recorded" : "2024-12-28T13:28:54.166592001-07:00",
        "resourceType" : "Provenance",
        "target" : [
          {
            "display" : "Healthy Mind",
            "reference" : "Observation/DC6930E3-EF6E-49E3-A7C1-982CD8E17E77"
          },
          {
            "display" : "Healthy Body",
            "reference" : "Observation/0CC1F4BA-BF7A-49CD-91EA-47CCFB190823"
          },
          {
            "display" : "Managing Conditions & Symptoms",
            "reference" : "Observation/8EA49FAB-BB38-4F7F-8772-A7A1045B61CB"
          },
          {
            "display" : "Housing",
            "reference" : "Observation/4C9D0B56-AAEF-48C7-A6EB-8E6037A5B2BC"
          },
          {
            "display" : "Access to Services & Supports",
            "reference" : "Observation/63F4B077-B025-46B6-AAA7-B9F35E8A953C"
          },
          {
            "display" : "Physical Function",
            "reference" : "Observation/6DA1E373-05BA-4BCE-848C-5A48B7DC343E"
          }
        ]
      }
    },
    {
      "request" : {
        "method" : "PUT",
        "url" : "Observation/0CC1F4BA-BF7A-49CD-91EA-47CCFB190823"
      },
      "resource" : {
        "category" : [
          {
            "coding" : [
              {
                "code" : "survey",
                "display" : "Survey",
                "system" : "http://terminology.hl7.org/CodeSystem/observation-category"
              }
            ]
          },
          {
            "coding" : [
              {
                "code" : "wellbeing-focus-area",
                "display" : "Well-Being Focus Area",
                "system" : "http://hl7.org/fhir/us/pco/CodeSystem/wellbeing-concepts"
              }
            ]
          }
        ],
        "code" : {
          "coding" : [
            {
              "code" : "body",
              "display" : "Healthy Body",
              "system" : "http://mtnlotus.com/fhir/mlw/CodeSystem/wellbeing-concepts"
            }
          ]
        },
        "effectiveDateTime" : "2024-10-01T09:47:53.590994954-07:00",
        "id" : "0CC1F4BA-BF7A-49CD-91EA-47CCFB190823",
        "meta" : {
          "profile" : [
            "http://hl7.org/fhir/us/pco/StructureDefinition/pco-what-matters-priority-focus"
          ]
        },
        "performer" : [
          {
            "display" : "Camila Lopez",
            "reference" : "Patient/3D4E56EA-2506-47D4-9753-2E6384A547F1"
          }
        ],
        "resourceType" : "Observation",
        "status" : "final",
        "subject" : {
          "display" : "Camila Lopez",
          "reference" : "Patient/3D4E56EA-2506-47D4-9753-2E6384A547F1"
        },
        "valueBoolean" : true
      }
    },
    {
      "request" : {
        "method" : "PUT",
        "url" : "Observation/8EA49FAB-BB38-4F7F-8772-A7A1045B61CB"
      },
      "resource" : {
        "category" : [
          {
            "coding" : [
              {
                "code" : "survey",
                "display" : "Survey",
                "system" : "http://terminology.hl7.org/CodeSystem/observation-category"
              }
            ]
          },
          {
            "coding" : [
              {
                "code" : "wellbeing-focus-area",
                "display" : "Well-Being Focus Area",
                "system" : "http://hl7.org/fhir/us/pco/CodeSystem/wellbeing-concepts"
              }
            ]
          }
        ],
        "code" : {
          "text" : "Managing Conditions & Symptoms"
        },
        "effectiveDateTime" : "2024-07-09T15:20:37.653223991-07:00",
        "id" : "8EA49FAB-BB38-4F7F-8772-A7A1045B61CB",
        "meta" : {
          "profile" : [
            "http://hl7.org/fhir/us/pco/StructureDefinition/pco-what-matters-priority-focus"
          ]
        },
        "performer" : [
          {
            "display" : "Camila Lopez",
            "reference" : "Patient/3D4E56EA-2506-47D4-9753-2E6384A547F1"
          }
        ],
        "resourceType" : "Observation",
        "status" : "final",
        "subject" : {
          "display" : "Camila Lopez",
          "reference" : "Patient/3D4E56EA-2506-47D4-9753-2E6384A547F1"
        },
        "valueBoolean" : true
      }
    },
    {
      "request" : {
        "method" : "PUT",
        "url" : "Observation/6DA1E373-05BA-4BCE-848C-5A48B7DC343E"
      },
      "resource" : {
        "category" : [
          {
            "coding" : [
              {
                "code" : "survey",
                "display" : "Survey",
                "system" : "http://terminology.hl7.org/CodeSystem/observation-category"
              }
            ]
          },
          {
            "coding" : [
              {
                "code" : "wellbeing-focus-area",
                "display" : "Well-Being Focus Area",
                "system" : "http://hl7.org/fhir/us/pco/CodeSystem/wellbeing-concepts"
              }
            ]
          }
        ],
        "code" : {
          "text" : "Physical Function"
        },
        "effectiveDateTime" : "2024-05-17T20:34:25.236232042-07:00",
        "id" : "6DA1E373-05BA-4BCE-848C-5A48B7DC343E",
        "meta" : {
          "profile" : [
            "http://hl7.org/fhir/us/pco/StructureDefinition/pco-what-matters-priority-focus"
          ]
        },
        "performer" : [
          {
            "display" : "Camila Lopez",
            "reference" : "Patient/3D4E56EA-2506-47D4-9753-2E6384A547F1"
          }
        ],
        "resourceType" : "Observation",
        "status" : "final",
        "subject" : {
          "display" : "Camila Lopez",
          "reference" : "Patient/3D4E56EA-2506-47D4-9753-2E6384A547F1"
        },
        "valueBoolean" : true
      }
    },
    {
      "request" : {
        "method" : "PUT",
        "url" : "Provenance/90884E32-6C6F-4F2A-8A8B-0E247A265296"
      },
      "resource" : {
        "agent" : [
          {
            "type" : {
              "coding" : [
                {
                  "code" : "author",
                  "display" : "Author",
                  "system" : "http://terminology.hl7.org/CodeSystem/provenance-participant-type"
                }
              ]
            },
            "who" : {
              "display" : "Camila Lopez",
              "reference" : "Patient/3D4E56EA-2506-47D4-9753-2E6384A547F1"
            }
          },
          {
            "type" : {
              "coding" : [
                {
                  "code" : "transmitter",
                  "display" : "Transmitter",
                  "system" : "http://hl7.org/fhir/us/core/CodeSystem/us-core-provenance-participant-type"
                }
              ]
            },
            "who" : {
              "display" : "Mountain Lotus WellBeing"
            }
          }
        ],
        "recorded" : "2024-12-28T13:28:54.172212958-07:00",
        "resourceType" : "Provenance",
        "target" : [
          {
            "display" : "Healthy Body",
            "reference" : "Observation/0CC1F4BA-BF7A-49CD-91EA-47CCFB190823"
          },
          {
            "display" : "Managing Conditions & Symptoms",
            "reference" : "Observation/8EA49FAB-BB38-4F7F-8772-A7A1045B61CB"
          },
          {
            "display" : "Physical Function",
            "reference" : "Observation/6DA1E373-05BA-4BCE-848C-5A48B7DC343E"
          }
        ]
      }
    },
    {
      "request" : {
        "method" : "PUT",
        "url" : "Goal/DEB35CAD-D5B4-4E29-8A03-23958A04FA94"
      },
      "resource" : {
        "achievementStatus" : {
          "coding" : [
            {
              "code" : "in-progress",
              "display" : "In Progress",
              "system" : "http://terminology.hl7.org/CodeSystem/goal-achievement"
            }
          ],
          "text" : "In Progress"
        },
        "addresses" : [
          {
            "display" : "Physical Function",
            "reference" : "Observation/6DA1E373-05BA-4BCE-848C-5A48B7DC343E"
          }
        ],
        "description" : {
          "text" : "Walk my dog 5 times per week in the park"
        },
        "expressedBy" : {
          "display" : "Camila Lopez",
          "reference" : "Patient/3D4E56EA-2506-47D4-9753-2E6384A547F1"
        },
        "id" : "DEB35CAD-D5B4-4E29-8A03-23958A04FA94",
        "lifecycleStatus" : "active",
        "meta" : {
          "profile" : [
            "http://hl7.org/fhir/us/pco/StructureDefinition/pco-gas-goal-profile"
          ]
        },
        "note" : [
          {
            "text" : "Too hot to walk \n",
            "time" : "2024-07-12T12:42:35.813436031-07:00"
          }
        ],
        "resourceType" : "Goal",
        "startDate" : "2024-04-02",
        "subject" : {
          "display" : "Camila Lopez",
          "reference" : "Patient/3D4E56EA-2506-47D4-9753-2E6384A547F1"
        },
        "target" : [
          {
            "dueDate" : "2024-10-31"
          }
        ]
      }
    },
    {
      "request" : {
        "method" : "PUT",
        "url" : "Goal/0E089CD9-5B4A-43B3-8900-E17D81AC0763"
      },
      "resource" : {
        "achievementStatus" : {
          "coding" : [
            {
              "code" : "in-progress",
              "display" : "In Progress",
              "system" : "http://terminology.hl7.org/CodeSystem/goal-achievement"
            }
          ],
          "text" : "In Progress"
        },
        "addresses" : [
          {
            "display" : "Healthy Body",
            "reference" : "Observation/0CC1F4BA-BF7A-49CD-91EA-47CCFB190823"
          }
        ],
        "category" : [
          {
            "coding" : [
              {
                "code" : "physical-function",
                "display" : "Physical Function",
                "system" : "http://hl7.org/fhir/us/pco/CodeSystem/pco-goal-domains"
              }
            ]
          }
        ],
        "description" : {
          "text" : "Resistance training 3x per week"
        },
        "expressedBy" : {
          "display" : "Camila Lopez",
          "reference" : "Patient/3D4E56EA-2506-47D4-9753-2E6384A547F1"
        },
        "id" : "0E089CD9-5B4A-43B3-8900-E17D81AC0763",
        "lifecycleStatus" : "active",
        "meta" : {
          "profile" : [
            "http://hl7.org/fhir/us/pco/StructureDefinition/pco-gas-goal-profile"
          ]
        },
        "resourceType" : "Goal",
        "startDate" : "2024-10-01",
        "subject" : {
          "display" : "Camila Lopez",
          "reference" : "Patient/3D4E56EA-2506-47D4-9753-2E6384A547F1"
        },
        "target" : [
          {
            "dueDate" : "2025-02-28"
          }
        ]
      }
    },
    {
      "request" : {
        "method" : "PUT",
        "url" : "Provenance/CC2003EC-C530-4D58-B11F-77416C9EF6A9"
      },
      "resource" : {
        "agent" : [
          {
            "type" : {
              "coding" : [
                {
                  "code" : "author",
                  "display" : "Author",
                  "system" : "http://terminology.hl7.org/CodeSystem/provenance-participant-type"
                }
              ]
            },
            "who" : {
              "display" : "Camila Lopez",
              "reference" : "Patient/3D4E56EA-2506-47D4-9753-2E6384A547F1"
            }
          },
          {
            "type" : {
              "coding" : [
                {
                  "code" : "transmitter",
                  "display" : "Transmitter",
                  "system" : "http://hl7.org/fhir/us/core/CodeSystem/us-core-provenance-participant-type"
                }
              ]
            },
            "who" : {
              "display" : "Mountain Lotus WellBeing"
            }
          }
        ],
        "recorded" : "2024-12-28T13:28:54.176707983-07:00",
        "resourceType" : "Provenance",
        "target" : [
          {
            "display" : "Walk my dog 5 times per week in the park",
            "reference" : "Goal/DEB35CAD-D5B4-4E29-8A03-23958A04FA94"
          },
          {
            "display" : "Resistance training 3x per week",
            "reference" : "Goal/0E089CD9-5B4A-43B3-8900-E17D81AC0763"
          }
        ]
      }
    },
    {
      "request" : {
        "method" : "PUT",
        "url" : "Observation/DEB35CAD-D5B4-4E29-8A03-23958A04FA94"
      },
      "resource" : {
        "category" : [
          {
            "coding" : [
              {
                "code" : "survey",
                "display" : "Survey",
                "system" : "http://terminology.hl7.org/CodeSystem/observation-category"
              }
            ]
          }
        ],
        "code" : {
          "coding" : [
            {
              "code" : "68489",
              "display" : "Goal attainment scale",
              "system" : "http://loinc.org"
            }
          ]
        },
        "effectiveDateTime" : "2024-04-02T23:59:59-07:00",
        "focus" : [
          {
            "display" : "Walk my dog 5 times per week in the park",
            "reference" : "Goal/DEB35CAD-D5B4-4E29-8A03-23958A04FA94"
          }
        ],
        "id" : "DEB35CAD-D5B4-4E29-8A03-23958A04FA94",
        "meta" : {
          "profile" : [
            "http://hl7.org/fhir/us/pco/StructureDefinition/pco-gas-score-observation"
          ]
        },
        "performer" : [
          {
            "display" : "Camila Lopez",
            "reference" : "Patient/3D4E56EA-2506-47D4-9753-2E6384A547F1"
          }
        ],
        "resourceType" : "Observation",
        "status" : "final",
        "subject" : {
          "display" : "Camila Lopez",
          "reference" : "Patient/3D4E56EA-2506-47D4-9753-2E6384A547F1"
        },
        "valueCodeableConcept" : {
          "coding" : [
            {
              "code" : "gas-less-than-expected",
              "display" : "Less than expected",
              "system" : "http://loinc.org"
            }
          ],
          "text" : "Less than expected"
        }
      }
    },
    {
      "request" : {
        "method" : "PUT",
        "url" : "Observation/0E089CD9-5B4A-43B3-8900-E17D81AC0763"
      },
      "resource" : {
        "category" : [
          {
            "coding" : [
              {
                "code" : "survey",
                "display" : "Survey",
                "system" : "http://terminology.hl7.org/CodeSystem/observation-category"
              }
            ]
          }
        ],
        "code" : {
          "coding" : [
            {
              "code" : "68489",
              "display" : "Goal attainment scale",
              "system" : "http://loinc.org"
            }
          ]
        },
        "effectiveDateTime" : "2024-10-01T23:59:59-07:00",
        "focus" : [
          {
            "display" : "Resistance training 3x per week",
            "reference" : "Goal/0E089CD9-5B4A-43B3-8900-E17D81AC0763"
          }
        ],
        "id" : "0E089CD9-5B4A-43B3-8900-E17D81AC0763",
        "meta" : {
          "profile" : [
            "http://hl7.org/fhir/us/pco/StructureDefinition/pco-gas-score-observation"
          ]
        },
        "performer" : [
          {
            "display" : "Camila Lopez",
            "reference" : "Patient/3D4E56EA-2506-47D4-9753-2E6384A547F1"
          }
        ],
        "resourceType" : "Observation",
        "status" : "final",
        "subject" : {
          "display" : "Camila Lopez",
          "reference" : "Patient/3D4E56EA-2506-47D4-9753-2E6384A547F1"
        },
        "valueCodeableConcept" : {
          "coding" : [
            {
              "code" : "gas-less-than-expected",
              "display" : "Less than expected",
              "system" : "http://loinc.org"
            }
          ],
          "text" : "Less than expected"
        }
      }
    },
    {
      "request" : {
        "method" : "PUT",
        "url" : "Provenance/BB8A3A7D-2BB2-4340-A0D4-31CE3ECD7C95"
      },
      "resource" : {
        "agent" : [
          {
            "type" : {
              "coding" : [
                {
                  "code" : "author",
                  "display" : "Author",
                  "system" : "http://terminology.hl7.org/CodeSystem/provenance-participant-type"
                }
              ]
            },
            "who" : {
              "display" : "Camila Lopez",
              "reference" : "Patient/3D4E56EA-2506-47D4-9753-2E6384A547F1"
            }
          },
          {
            "type" : {
              "coding" : [
                {
                  "code" : "transmitter",
                  "display" : "Transmitter",
                  "system" : "http://hl7.org/fhir/us/core/CodeSystem/us-core-provenance-participant-type"
                }
              ]
            },
            "who" : {
              "display" : "Mountain Lotus WellBeing"
            }
          }
        ],
        "recorded" : "2024-12-28T13:28:54.177431941-07:00",
        "resourceType" : "Provenance",
        "target" : [
          {
            "display" : "Goal attainment scale",
            "reference" : "Observation/DEB35CAD-D5B4-4E29-8A03-23958A04FA94"
          },
          {
            "display" : "Goal attainment scale",
            "reference" : "Observation/0E089CD9-5B4A-43B3-8900-E17D81AC0763"
          }
        ]
      }
    },
    {
      "request" : {
        "method" : "PUT",
        "url" : "ServiceRequest/25468FD8-4714-40B9-BA72-97AF4F10A346"
      },
      "resource" : {
        "authoredOn" : "2024-05-19T05:34:21.07843995-07:00",
        "code" : {
          "text" : "Walk around the block two times per week"
        },
        "extension" : [
          {
            "url" : "http://hl7.org/fhir/StructureDefinition/resource-pertainsToGoal",
            "valueReference" : {
              "display" : "Walk my dog 5 times per week in the park",
              "reference" : "Goal/DEB35CAD-D5B4-4E29-8A03-23958A04FA94"
            }
          }
        ],
        "id" : "25468FD8-4714-40B9-BA72-97AF4F10A346",
        "intent" : "order",
        "meta" : {
          "profile" : [
            "http://hl7.org/fhir/us/mcc/StructureDefinition/MCCServiceRequest"
          ]
        },
        "occurrenceTiming" : {
          "repeat" : {
            "boundsPeriod" : {
              "end" : "2024-10-08T09:37:57.145133972-07:00",
              "start" : "2024-05-18T23:00:00-07:00"
            },
            "frequency" : 2,
            "periodUnit" : "wk"
          }
        },
        "performer" : [
          {
            "display" : "Camila Lopez",
            "reference" : "Patient/3D4E56EA-2506-47D4-9753-2E6384A547F1"
          }
        ],
        "requester" : {
          "display" : "Camila Lopez",
          "reference" : "Patient/3D4E56EA-2506-47D4-9753-2E6384A547F1"
        },
        "resourceType" : "ServiceRequest",
        "status" : "active",
        "subject" : {
          "display" : "Camila Lopez",
          "reference" : "Patient/3D4E56EA-2506-47D4-9753-2E6384A547F1"
        }
      }
    },
    {
      "request" : {
        "method" : "PUT",
        "url" : "ServiceRequest/58E98674-83F5-4E91-B91B-210903011E39"
      },
      "resource" : {
        "authoredOn" : "2024-10-01T09:49:15.534083008-07:00",
        "code" : {
          "text" : "Squats with 20 lbs"
        },
        "extension" : [
          {
            "url" : "http://hl7.org/fhir/StructureDefinition/resource-pertainsToGoal",
            "valueReference" : {
              "display" : "Resistance training 3x per week",
              "reference" : "Goal/0E089CD9-5B4A-43B3-8900-E17D81AC0763"
            }
          }
        ],
        "id" : "58E98674-83F5-4E91-B91B-210903011E39",
        "intent" : "order",
        "meta" : {
          "profile" : [
            "http://hl7.org/fhir/us/mcc/StructureDefinition/MCCServiceRequest"
          ]
        },
        "occurrenceTiming" : {
          "repeat" : {
            "boundsPeriod" : {
              "end" : "2024-10-15T23:59:59-07:00",
              "start" : "2024-10-01T00:00:00-07:00"
            },
            "frequency" : 3,
            "periodUnit" : "wk"
          }
        },
        "performer" : [
          {
            "display" : "Camila Lopez",
            "reference" : "Patient/3D4E56EA-2506-47D4-9753-2E6384A547F1"
          }
        ],
        "requester" : {
          "display" : "Camila Lopez",
          "reference" : "Patient/3D4E56EA-2506-47D4-9753-2E6384A547F1"
        },
        "resourceType" : "ServiceRequest",
        "status" : "active",
        "subject" : {
          "display" : "Camila Lopez",
          "reference" : "Patient/3D4E56EA-2506-47D4-9753-2E6384A547F1"
        }
      }
    },
    {
      "request" : {
        "method" : "PUT",
        "url" : "Provenance/459EFB69-0E2D-402A-B990-DAD4173C2FDA"
      },
      "resource" : {
        "agent" : [
          {
            "type" : {
              "coding" : [
                {
                  "code" : "author",
                  "display" : "Author",
                  "system" : "http://terminology.hl7.org/CodeSystem/provenance-participant-type"
                }
              ]
            },
            "who" : {
              "display" : "Camila Lopez",
              "reference" : "Patient/3D4E56EA-2506-47D4-9753-2E6384A547F1"
            }
          },
          {
            "type" : {
              "coding" : [
                {
                  "code" : "transmitter",
                  "display" : "Transmitter",
                  "system" : "http://hl7.org/fhir/us/core/CodeSystem/us-core-provenance-participant-type"
                }
              ]
            },
            "who" : {
              "display" : "Mountain Lotus WellBeing"
            }
          }
        ],
        "recorded" : "2024-12-28T13:28:54.180474042-07:00",
        "resourceType" : "Provenance",
        "target" : [
          {
            "display" : "Walk around the block two times per week",
            "reference" : "ServiceRequest/25468FD8-4714-40B9-BA72-97AF4F10A346"
          },
          {
            "display" : "Squats with 20 lbs",
            "reference" : "ServiceRequest/58E98674-83F5-4E91-B91B-210903011E39"
          }
        ]
      }
    },
    {
      "request" : {
        "method" : "PUT",
        "url" : "Observation/5DDCB59F-28E1-4590-A15B-559C242C13CC"
      },
      "resource" : {
        "category" : [
          {
            "coding" : [
              {
                "code" : "survey",
                "display" : "Survey",
                "system" : "http://terminology.hl7.org/CodeSystem/observation-category"
              }
            ]
          }
        ],
        "code" : {
          "coding" : [
            {
              "code" : "readiness-assessment",
              "display" : "Readiness Assessment",
              "system" : "http://mtnlotus.com/fhir/mlw/CodeSystem/goal-readiness"
            }
          ],
          "text" : "Readiness Assessment"
        },
        "effectiveDateTime" : "2024-10-01T09:49:10.299582958-07:00",
        "focus" : [
          {
            "display" : "Resistance training 3x per week",
            "reference" : "Goal/0E089CD9-5B4A-43B3-8900-E17D81AC0763"
          }
        ],
        "hasMember" : [
          {
            "display" : "Importance (Why)",
            "reference" : "Observation/77E52BAD-FCC6-411A-BBA4-812D4EE5C657"
          },
          {
            "display" : "Confidence (How)",
            "reference" : "Observation/C1435E11-9747-4533-93DA-2183536DD4BC"
          }
        ],
        "id" : "5DDCB59F-28E1-4590-A15B-559C242C13CC",
        "meta" : {
          "profile" : [
            "http://hl7.org/fhir/us/core/StructureDefinition/us-core-simple-observation"
          ]
        },
        "performer" : [
          {
            "display" : "Camila Lopez",
            "reference" : "Patient/3D4E56EA-2506-47D4-9753-2E6384A547F1"
          }
        ],
        "resourceType" : "Observation",
        "status" : "final",
        "subject" : {
          "display" : "Camila Lopez",
          "reference" : "Patient/3D4E56EA-2506-47D4-9753-2E6384A547F1"
        }
      }
    },
    {
      "request" : {
        "method" : "PUT",
        "url" : "Observation/77E52BAD-FCC6-411A-BBA4-812D4EE5C657"
      },
      "resource" : {
        "category" : [
          {
            "coding" : [
              {
                "code" : "survey",
                "display" : "Survey",
                "system" : "http://terminology.hl7.org/CodeSystem/observation-category"
              }
            ]
          }
        ],
        "code" : {
          "coding" : [
            {
              "code" : "importance",
              "display" : "Importance (Why)",
              "system" : "http://mtnlotus.com/fhir/mlw/CodeSystem/goal-readiness"
            }
          ],
          "text" : "Importance (Why)"
        },
        "effectiveDateTime" : "2024-10-01T09:49:10.299582958-07:00",
        "focus" : [
          {
            "display" : "Resistance training 3x per week",
            "reference" : "Goal/0E089CD9-5B4A-43B3-8900-E17D81AC0763"
          }
        ],
        "id" : "77E52BAD-FCC6-411A-BBA4-812D4EE5C657",
        "meta" : {
          "profile" : [
            "http://hl7.org/fhir/us/core/StructureDefinition/us-core-simple-observation"
          ]
        },
        "performer" : [
          {
            "display" : "Camila Lopez",
            "reference" : "Patient/3D4E56EA-2506-47D4-9753-2E6384A547F1"
          }
        ],
        "resourceType" : "Observation",
        "status" : "final",
        "subject" : {
          "display" : "Camila Lopez",
          "reference" : "Patient/3D4E56EA-2506-47D4-9753-2E6384A547F1"
        },
        "valueInteger" : 10
      }
    },
    {
      "request" : {
        "method" : "PUT",
        "url" : "Observation/C1435E11-9747-4533-93DA-2183536DD4BC"
      },
      "resource" : {
        "category" : [
          {
            "coding" : [
              {
                "code" : "survey",
                "display" : "Survey",
                "system" : "http://terminology.hl7.org/CodeSystem/observation-category"
              }
            ]
          }
        ],
        "code" : {
          "coding" : [
            {
              "code" : "confidence",
              "display" : "Confidence (How)",
              "system" : "http://mtnlotus.com/fhir/mlw/CodeSystem/goal-readiness"
            }
          ],
          "text" : "Confidence (How)"
        },
        "effectiveDateTime" : "2024-10-01T09:49:10.299582958-07:00",
        "focus" : [
          {
            "display" : "Resistance training 3x per week",
            "reference" : "Goal/0E089CD9-5B4A-43B3-8900-E17D81AC0763"
          }
        ],
        "id" : "C1435E11-9747-4533-93DA-2183536DD4BC",
        "meta" : {
          "profile" : [
            "http://hl7.org/fhir/us/core/StructureDefinition/us-core-simple-observation"
          ]
        },
        "performer" : [
          {
            "display" : "Camila Lopez",
            "reference" : "Patient/3D4E56EA-2506-47D4-9753-2E6384A547F1"
          }
        ],
        "resourceType" : "Observation",
        "status" : "final",
        "subject" : {
          "display" : "Camila Lopez",
          "reference" : "Patient/3D4E56EA-2506-47D4-9753-2E6384A547F1"
        },
        "valueInteger" : 6
      }
    },
    {
      "request" : {
        "method" : "PUT",
        "url" : "Observation/D9B47212-309C-47A2-9670-873172227230"
      },
      "resource" : {
        "category" : [
          {
            "coding" : [
              {
                "code" : "survey",
                "display" : "Survey",
                "system" : "http://terminology.hl7.org/CodeSystem/observation-category"
              }
            ]
          }
        ],
        "code" : {
          "coding" : [
            {
              "code" : "readiness-assessment",
              "display" : "Readiness Assessment",
              "system" : "http://mtnlotus.com/fhir/mlw/CodeSystem/goal-readiness"
            }
          ],
          "text" : "Readiness Assessment"
        },
        "effectiveDateTime" : "2024-05-17T20:39:53.126574993-07:00",
        "focus" : [
          {
            "display" : "Walk my dog 5 times per week in the park",
            "reference" : "Goal/DEB35CAD-D5B4-4E29-8A03-23958A04FA94"
          }
        ],
        "hasMember" : [
          {
            "display" : "Importance (Why)",
            "reference" : "Observation/CA0043F2-66DC-443F-878E-095E54D537EE"
          },
          {
            "display" : "Confidence (How)",
            "reference" : "Observation/BF47EABC-A7BC-4670-AD3E-5D90D7665CF5"
          }
        ],
        "id" : "D9B47212-309C-47A2-9670-873172227230",
        "meta" : {
          "profile" : [
            "http://hl7.org/fhir/us/core/StructureDefinition/us-core-simple-observation"
          ]
        },
        "performer" : [
          {
            "display" : "Camila Lopez",
            "reference" : "Patient/3D4E56EA-2506-47D4-9753-2E6384A547F1"
          }
        ],
        "resourceType" : "Observation",
        "status" : "final",
        "subject" : {
          "display" : "Camila Lopez",
          "reference" : "Patient/3D4E56EA-2506-47D4-9753-2E6384A547F1"
        }
      }
    },
    {
      "request" : {
        "method" : "PUT",
        "url" : "Observation/CA0043F2-66DC-443F-878E-095E54D537EE"
      },
      "resource" : {
        "category" : [
          {
            "coding" : [
              {
                "code" : "survey",
                "display" : "Survey",
                "system" : "http://terminology.hl7.org/CodeSystem/observation-category"
              }
            ]
          }
        ],
        "code" : {
          "coding" : [
            {
              "code" : "importance",
              "display" : "Importance (Why)",
              "system" : "http://mtnlotus.com/fhir/mlw/CodeSystem/goal-readiness"
            }
          ],
          "text" : "Importance (Why)"
        },
        "effectiveDateTime" : "2024-05-17T20:39:53.126574993-07:00",
        "focus" : [
          {
            "display" : "Walk my dog 5 times per week in the park",
            "reference" : "Goal/DEB35CAD-D5B4-4E29-8A03-23958A04FA94"
          }
        ],
        "id" : "CA0043F2-66DC-443F-878E-095E54D537EE",
        "meta" : {
          "profile" : [
            "http://hl7.org/fhir/us/core/StructureDefinition/us-core-simple-observation"
          ]
        },
        "performer" : [
          {
            "display" : "Camila Lopez",
            "reference" : "Patient/3D4E56EA-2506-47D4-9753-2E6384A547F1"
          }
        ],
        "resourceType" : "Observation",
        "status" : "final",
        "subject" : {
          "display" : "Camila Lopez",
          "reference" : "Patient/3D4E56EA-2506-47D4-9753-2E6384A547F1"
        },
        "valueInteger" : 8
      }
    },
    {
      "request" : {
        "method" : "PUT",
        "url" : "Observation/BF47EABC-A7BC-4670-AD3E-5D90D7665CF5"
      },
      "resource" : {
        "category" : [
          {
            "coding" : [
              {
                "code" : "survey",
                "display" : "Survey",
                "system" : "http://terminology.hl7.org/CodeSystem/observation-category"
              }
            ]
          }
        ],
        "code" : {
          "coding" : [
            {
              "code" : "confidence",
              "display" : "Confidence (How)",
              "system" : "http://mtnlotus.com/fhir/mlw/CodeSystem/goal-readiness"
            }
          ],
          "text" : "Confidence (How)"
        },
        "effectiveDateTime" : "2024-05-17T20:39:53.126574993-07:00",
        "focus" : [
          {
            "display" : "Walk my dog 5 times per week in the park",
            "reference" : "Goal/DEB35CAD-D5B4-4E29-8A03-23958A04FA94"
          }
        ],
        "id" : "BF47EABC-A7BC-4670-AD3E-5D90D7665CF5",
        "meta" : {
          "profile" : [
            "http://hl7.org/fhir/us/core/StructureDefinition/us-core-simple-observation"
          ]
        },
        "performer" : [
          {
            "display" : "Camila Lopez",
            "reference" : "Patient/3D4E56EA-2506-47D4-9753-2E6384A547F1"
          }
        ],
        "resourceType" : "Observation",
        "status" : "final",
        "subject" : {
          "display" : "Camila Lopez",
          "reference" : "Patient/3D4E56EA-2506-47D4-9753-2E6384A547F1"
        },
        "valueInteger" : 5
      }
    },
    {
      "request" : {
        "method" : "PUT",
        "url" : "Provenance/4F77436D-2AC2-422C-B66A-BE5780DB8BCD"
      },
      "resource" : {
        "agent" : [
          {
            "type" : {
              "coding" : [
                {
                  "code" : "author",
                  "display" : "Author",
                  "system" : "http://terminology.hl7.org/CodeSystem/provenance-participant-type"
                }
              ]
            },
            "who" : {
              "display" : "Camila Lopez",
              "reference" : "Patient/3D4E56EA-2506-47D4-9753-2E6384A547F1"
            }
          },
          {
            "type" : {
              "coding" : [
                {
                  "code" : "transmitter",
                  "display" : "Transmitter",
                  "system" : "http://hl7.org/fhir/us/core/CodeSystem/us-core-provenance-participant-type"
                }
              ]
            },
            "who" : {
              "display" : "Mountain Lotus WellBeing"
            }
          }
        ],
        "recorded" : "2024-12-28T13:28:54.183475017-07:00",
        "resourceType" : "Provenance",
        "target" : [
          {
            "display" : "Readiness Assessment",
            "reference" : "Observation/5DDCB59F-28E1-4590-A15B-559C242C13CC"
          },
          {
            "display" : "Importance (Why)",
            "reference" : "Observation/77E52BAD-FCC6-411A-BBA4-812D4EE5C657"
          },
          {
            "display" : "Confidence (How)",
            "reference" : "Observation/C1435E11-9747-4533-93DA-2183536DD4BC"
          },
          {
            "display" : "Readiness Assessment",
            "reference" : "Observation/D9B47212-309C-47A2-9670-873172227230"
          },
          {
            "display" : "Importance (Why)",
            "reference" : "Observation/CA0043F2-66DC-443F-878E-095E54D537EE"
          },
          {
            "display" : "Confidence (How)",
            "reference" : "Observation/BF47EABC-A7BC-4670-AD3E-5D90D7665CF5"
          }
        ]
      }
    },
    {
      "request" : {
        "method" : "PUT",
        "url" : "Observation/830CD829-D6D8-40A0-AD77-DC26E3EFA00D"
      },
      "resource" : {
        "category" : [
          {
            "coding" : [
              {
                "code" : "survey",
                "display" : "Survey",
                "system" : "http://terminology.hl7.org/CodeSystem/observation-category"
              }
            ]
          }
        ],
        "code" : {
          "coding" : [
            {
              "code" : "68491",
              "display" : "Patient follow-up goal attainment scaling score",
              "system" : "http://loinc.org"
            }
          ]
        },
        "effectiveDateTime" : "2024-07-12T12:42:35.773637056-07:00",
        "focus" : [
          {
            "display" : "Walk my dog 5 times per week in the park",
            "reference" : "Goal/DEB35CAD-D5B4-4E29-8A03-23958A04FA94"
          }
        ],
        "id" : "830CD829-D6D8-40A0-AD77-DC26E3EFA00D",
        "meta" : {
          "profile" : [
            "http://hl7.org/fhir/us/pco/StructureDefinition/pco-gas-score-observation"
          ]
        },
        "performer" : [
          {
            "display" : "Camila Lopez",
            "reference" : "Patient/3D4E56EA-2506-47D4-9753-2E6384A547F1"
          }
        ],
        "resourceType" : "Observation",
        "status" : "final",
        "subject" : {
          "display" : "Camila Lopez",
          "reference" : "Patient/3D4E56EA-2506-47D4-9753-2E6384A547F1"
        },
        "valueCodeableConcept" : {
          "coding" : [
            {
              "code" : "gas-less-than-expected",
              "display" : "Less than expected",
              "system" : "http://loinc.org"
            }
          ],
          "text" : "Less than expected"
        }
      }
    },
    {
      "request" : {
        "method" : "PUT",
        "url" : "Observation/4683AAFE-E775-4734-8916-321CE20DC0C2"
      },
      "resource" : {
        "category" : [
          {
            "coding" : [
              {
                "code" : "survey",
                "display" : "Survey",
                "system" : "http://terminology.hl7.org/CodeSystem/observation-category"
              }
            ]
          }
        ],
        "code" : {
          "coding" : [
            {
              "code" : "68491",
              "display" : "Patient follow-up goal attainment scaling score",
              "system" : "http://loinc.org"
            }
          ]
        },
        "effectiveDateTime" : "2024-07-11T15:45:57.936504006-07:00",
        "focus" : [
          {
            "display" : "Walk my dog 5 times per week in the park",
            "reference" : "Goal/DEB35CAD-D5B4-4E29-8A03-23958A04FA94"
          }
        ],
        "id" : "4683AAFE-E775-4734-8916-321CE20DC0C2",
        "meta" : {
          "profile" : [
            "http://hl7.org/fhir/us/pco/StructureDefinition/pco-gas-score-observation"
          ]
        },
        "performer" : [
          {
            "display" : "Camila Lopez",
            "reference" : "Patient/3D4E56EA-2506-47D4-9753-2E6384A547F1"
          }
        ],
        "resourceType" : "Observation",
        "status" : "final",
        "subject" : {
          "display" : "Camila Lopez",
          "reference" : "Patient/3D4E56EA-2506-47D4-9753-2E6384A547F1"
        },
        "valueCodeableConcept" : {
          "coding" : [
            {
              "code" : "LA6112-2",
              "display" : "Better than expected",
              "system" : "http://loinc.org"
            }
          ],
          "text" : "Better than expected"
        }
      }
    },
    {
      "request" : {
        "method" : "PUT",
        "url" : "Observation/72BFB842-4600-4369-B6E8-83C278E35122"
      },
      "resource" : {
        "category" : [
          {
            "coding" : [
              {
                "code" : "survey",
                "display" : "Survey",
                "system" : "http://terminology.hl7.org/CodeSystem/observation-category"
              }
            ]
          }
        ],
        "code" : {
          "coding" : [
            {
              "code" : "68491",
              "display" : "Patient follow-up goal attainment scaling score",
              "system" : "http://loinc.org"
            }
          ]
        },
        "effectiveDateTime" : "2024-05-19T05:28:07.087777018-07:00",
        "focus" : [
          {
            "display" : "Walk my dog 5 times per week in the park",
            "reference" : "Goal/DEB35CAD-D5B4-4E29-8A03-23958A04FA94"
          }
        ],
        "id" : "72BFB842-4600-4369-B6E8-83C278E35122",
        "meta" : {
          "profile" : [
            "http://hl7.org/fhir/us/pco/StructureDefinition/pco-gas-score-observation"
          ]
        },
        "performer" : [
          {
            "display" : "Camila Lopez",
            "reference" : "Patient/3D4E56EA-2506-47D4-9753-2E6384A547F1"
          }
        ],
        "resourceType" : "Observation",
        "status" : "final",
        "subject" : {
          "display" : "Camila Lopez",
          "reference" : "Patient/3D4E56EA-2506-47D4-9753-2E6384A547F1"
        },
        "valueCodeableConcept" : {
          "coding" : [
            {
              "code" : "gas-less-than-expected",
              "display" : "Less than expected",
              "system" : "http://loinc.org"
            }
          ],
          "text" : "Less than expected"
        }
      }
    },
    {
      "request" : {
        "method" : "PUT",
        "url" : "Provenance/77CE7FEC-C82F-4342-A9A4-64B361254BE3"
      },
      "resource" : {
        "agent" : [
          {
            "type" : {
              "coding" : [
                {
                  "code" : "author",
                  "display" : "Author",
                  "system" : "http://terminology.hl7.org/CodeSystem/provenance-participant-type"
                }
              ]
            },
            "who" : {
              "display" : "Camila Lopez",
              "reference" : "Patient/3D4E56EA-2506-47D4-9753-2E6384A547F1"
            }
          },
          {
            "type" : {
              "coding" : [
                {
                  "code" : "transmitter",
                  "display" : "Transmitter",
                  "system" : "http://hl7.org/fhir/us/core/CodeSystem/us-core-provenance-participant-type"
                }
              ]
            },
            "who" : {
              "display" : "Mountain Lotus WellBeing"
            }
          }
        ],
        "recorded" : "2024-12-28T13:28:54.184988021-07:00",
        "resourceType" : "Provenance",
        "target" : [
          {
            "display" : "Patient follow-up goal attainment scaling score",
            "reference" : "Observation/830CD829-D6D8-40A0-AD77-DC26E3EFA00D"
          },
          {
            "display" : "Patient follow-up goal attainment scaling score",
            "reference" : "Observation/4683AAFE-E775-4734-8916-321CE20DC0C2"
          },
          {
            "display" : "Patient follow-up goal attainment scaling score",
            "reference" : "Observation/72BFB842-4600-4369-B6E8-83C278E35122"
          }
        ]
      }
    },
    {
      "request" : {
        "method" : "PUT",
        "url" : "CarePlan/pcoCarePlan-3D4E56EA-2506-47D4-9753-2E6384A547F1"
      },
      "resource" : {
        "activity" : [
          {
            "reference" : {
              "display" : "Walk around the block two times per week",
              "reference" : "ServiceRequest/25468FD8-4714-40B9-BA72-97AF4F10A346"
            }
          },
          {
            "reference" : {
              "display" : "Squats with 20 lbs",
              "reference" : "ServiceRequest/58E98674-83F5-4E91-B91B-210903011E39"
            }
          }
        ],
        "author" : {
          "display" : "Camila Lopez",
          "reference" : "Patient/3D4E56EA-2506-47D4-9753-2E6384A547F1"
        },
        "goal" : [
          {
            "display" : "Walk my dog 5 times per week in the park",
            "reference" : "Goal/DEB35CAD-D5B4-4E29-8A03-23958A04FA94"
          },
          {
            "display" : "Resistance training 3x per week",
            "reference" : "Goal/0E089CD9-5B4A-43B3-8900-E17D81AC0763"
          }
        ],
        "id" : "pcoCarePlan-3D4E56EA-2506-47D4-9753-2E6384A547F1",
        "intent" : "plan",
        "resourceType" : "CarePlan",
        "status" : "active",
        "subject" : {
          "display" : "Camila Lopez",
          "reference" : "Patient/3D4E56EA-2506-47D4-9753-2E6384A547F1"
        }
      }
    },
    {
      "request" : {
        "method" : "PUT",
        "url" : "Provenance/1511A610-4171-4C50-A10D-93D1225892DA"
      },
      "resource" : {
        "agent" : [
          {
            "type" : {
              "coding" : [
                {
                  "code" : "author",
                  "display" : "Author",
                  "system" : "http://terminology.hl7.org/CodeSystem/provenance-participant-type"
                }
              ]
            },
            "who" : {
              "display" : "Camila Lopez",
              "reference" : "Patient/3D4E56EA-2506-47D4-9753-2E6384A547F1"
            }
          },
          {
            "type" : {
              "coding" : [
                {
                  "code" : "transmitter",
                  "display" : "Transmitter",
                  "system" : "http://hl7.org/fhir/us/core/CodeSystem/us-core-provenance-participant-type"
                }
              ]
            },
            "who" : {
              "display" : "Mountain Lotus WellBeing"
            }
          }
        ],
        "recorded" : "2024-12-28T13:28:54.185088038-07:00",
        "resourceType" : "Provenance",
        "target" : [
          {
            "display" : "CarePlan",
            "reference" : "CarePlan/pcoCarePlan-3D4E56EA-2506-47D4-9753-2E6384A547F1"
          }
        ]
      }
    }
  ],
  "resourceType" : "Bundle",
  "type" : "transaction",
  "id": "Camila-Bundle"
}