{"resourceType":"Bundle","id":"tests-pcoPatientJones-bundle","type":"transaction","entry":[{"resource":{"resourceType":"Goal","id":"pcoGoalPainLevelExample","lifecycleStatus":"active","achievementStatus":{"coding":[{"system":"http://terminology.hl7.org/CodeSystem/goal-achievement","code":"in-progress"}]},"category":[{"coding":[{"system":"http://mtnlotus.com/uv/pco/CodeSystem/pco-category-codes-example","code":"physical-function","display":"Physical Function"}]}],"description":{"text":"Maintain pain level below 5 while walking"},"subject":{"reference":"Patient/pcoPatientJones"},"startDate":"2024-02-15","target":[{"dueDate":"2024-06-30"}],"expressedBy":{"reference":"Patient/pcoPatientJones"}},"request":{"method":"PUT","url":"Goal/pcoGoalPainLevelExample"}},{"resource":{"resourceType":"Patient","id":"pcoPatientJones","identifier":[{"use":"official","system":"http://example.org","value":"ee8d4ac0-545c-4501-8d7e-646bfbda1db5"}],"name":[{"family":"Jones","given":["Dorothy"]}],"gender":"female","birthDate":"1947-11-25"},"request":{"method":"PUT","url":"Patient/pcoPatientJones"}},{"resource":{"resourceType":"ServiceRequest","id":"pcoWalkOutsideActionStep","extension":[{"url":"http://hl7.org/fhir/StructureDefinition/resource-pertainsToGoal","valueReference":{"reference":"Goal/pcoGoalWalkDogExample"}}],"status":"active","intent":"plan","code":{"text":"Walk outside without my dog"},"subject":{"reference":"Patient/pcoPatientJones"},"occurrenceTiming":{"repeat":{"boundsPeriod":{"start":"2024-02-22","end":"2024-03-07"},"frequency":2,"periodUnit":"wk"}},"authoredOn":"2024-02-22","requester":{"reference":"Practitioner/pcoPractitionerGonzalez"},"performer":[{"reference":"Patient/pcoPatientJones"}],"patientInstruction":"Start with a short walk to the corner of your block to gain confidence in your walking."},"request":{"method":"PUT","url":"ServiceRequest/pcoWalkOutsideActionStep"}},{"resource":{"resourceType":"CarePlan","id":"pcoPhyicalFunctionCarePlanExample","status":"active","intent":"plan","category":[{"coding":[{"system":"http://mtnlotus.com/uv/pco/CodeSystem/pco-category-codes-example","code":"physical-function","display":"Physical Function"}]},{"coding":[{"system":"http://mtnlotus.com/uv/pco/CodeSystem/pco-category-codes-example","code":"independence","display":"Independence"}]},{"coding":[{"system":"http://hl7.org/fhir/us/core/CodeSystem/careplan-category","code":"assess-plan"}]}],"subject":{"reference":"Patient/pcoPatientJones"},"period":{"start":"2024-02-22","end":"2024-09-30"},"goal":[{"reference":"Goal/pcoGoalWalkDogExample"}],"activity":[{"reference":{"reference":"ServiceRequest/pcoWalkOutsideActionStep"}},{"reference":{"reference":"ServiceRequest/pcoPhysicalTherapyReferral"}},{"reference":{"reference":"MedicationRequest/pcoAntiInflammatoryMedication"}}]},"request":{"method":"PUT","url":"CarePlan/pcoPhyicalFunctionCarePlanExample"}},{"resource":{"resourceType":"Observation","id":"pcoGASScorePractitionerFollowupExample","status":"final","category":[{"coding":[{"system":"http://terminology.hl7.org/CodeSystem/observation-category","code":"survey"}]}],"code":{"coding":[{"system":"http://mtnlotus.com/uv/pco/CodeSystem/pco-gas-codes-temporary","code":"goal-attainment-scaling"}]},"subject":{"reference":"Patient/pcoPatientJones"},"focus":[{"reference":"Goal/pcoGoalWalkDogExample"}],"effectiveDateTime":"2024-05-22T10:15:00Z","performer":[{"reference":"Practitioner/pcoPractitionerGonzalez"}],"valueCodeableConcept":{"coding":[{"system":"http://mtnlotus.com/uv/pco/CodeSystem/pco-gas-codes-temporary","code":"practitioner-gas-expected-outcome","display":"Expected outcome"}]}},"request":{"method":"PUT","url":"Observation/pcoGASScorePractitionerFollowupExample"}},{"resource":{"resourceType":"MedicationRequest","id":"pcoAntiInflammatoryMedication","status":"active","intent":"order","medicationCodeableConcept":{"coding":[{"system":"http://www.nlm.nih.gov/research/umls/rxnorm","code":"2550740","display":"Aleve Arthritis Pain 1 % Topical Gel"}]},"subject":{"reference":"Patient/pcoPatientJones"},"requester":{"reference":"Practitioner/pcoPractitionerAnderson"},"dosageInstruction":[{"patientInstruction":"Anti-inflammatory gel applied to knee 30 minutes before exercise","timing":{"repeat":{"boundsPeriod":{"start":"2024-02-22","end":"2024-06-30"}}},"asNeededBoolean":true}]},"request":{"method":"PUT","url":"MedicationRequest/pcoAntiInflammatoryMedication"}},{"resource":{"resourceType":"Practitioner","id":"pcoPractitionerGonzalez","identifier":[{"use":"official","system":"http://example.org","value":"ee8d4ac0-545c-4501-8d7e-646bfbda6cd7"}],"name":[{"text":"Maria Gonzalez, NBC-HWC","family":"Gonzalez","given":["Maria"],"suffix":["NBC-HWC"]}],"gender":"female"},"request":{"method":"PUT","url":"Practitioner/pcoPractitionerGonzalez"}},{"resource":{"resourceType":"Observation","id":"pcoGASScorePatientBaselineExample","status":"final","category":[{"coding":[{"system":"http://terminology.hl7.org/CodeSystem/observation-category","code":"survey"}]}],"code":{"coding":[{"system":"http://mtnlotus.com/uv/pco/CodeSystem/pco-gas-codes-temporary","code":"goal-attainment-scaling"}]},"subject":{"reference":"Patient/pcoPatientJones"},"focus":[{"reference":"Goal/pcoGoalWalkDogExample"}],"effectiveDateTime":"2024-04-03T10:15:00Z","performer":[{"reference":"Patient/pcoPatientJones"}],"valueCodeableConcept":{"coding":[{"system":"http://mtnlotus.com/uv/pco/CodeSystem/pco-gas-codes-temporary","code":"patient-gas-less-than-expected","display":"Less than expected"}]}},"request":{"method":"PUT","url":"Observation/pcoGASScorePatientBaselineExample"}},{"resource":{"resourceType":"Practitioner","id":"pcoPractitionerAnderson","identifier":[{"use":"official","system":"http://example.org","value":"ee8d4ac0-545c-4501-8d7e-646bfbda6de8"}],"name":[{"text":"John Anderson, MD","family":"Anderson","given":["John"],"suffix":["MD"]}],"gender":"male"},"request":{"method":"PUT","url":"Practitioner/pcoPractitionerAnderson"}},{"resource":{"resourceType":"Observation","id":"pcoGASScorePatientFollowupExample","status":"final","category":[{"coding":[{"system":"http://terminology.hl7.org/CodeSystem/observation-category","code":"survey"}]}],"code":{"coding":[{"system":"http://mtnlotus.com/uv/pco/CodeSystem/pco-gas-codes-temporary","code":"goal-attainment-scaling"}]},"subject":{"reference":"Patient/pcoPatientJones"},"focus":[{"reference":"Goal/pcoGoalWalkDogExample"}],"effectiveDateTime":"2024-05-10T10:15:00Z","performer":[{"reference":"Patient/pcoPatientJones"}],"valueCodeableConcept":{"coding":[{"system":"http://mtnlotus.com/uv/pco/CodeSystem/pco-gas-codes-temporary","code":"patient-gas-better-than-expected","display":"Better than expected"}]}},"request":{"method":"PUT","url":"Observation/pcoGASScorePatientFollowupExample"}},{"resource":{"resourceType":"Goal","id":"pcoGoalWalkDogExample","extension":[{"url":"http://mtnlotus.com/uv/pco/StructureDefinition/pco-goal-attainment-scaling","extension":[{"url":"level","valueCoding":{"system":"http://mtnlotus.com/uv/pco/CodeSystem/pco-gas-codes-temporary","code":"patient-gas-much-better-than-expected","display":"Much better than expected"}},{"url":"text","valueString":"Walk dog outside three times a week"}]},{"url":"http://mtnlotus.com/uv/pco/StructureDefinition/pco-goal-attainment-scaling","extension":[{"url":"level","valueCoding":{"system":"http://mtnlotus.com/uv/pco/CodeSystem/pco-gas-codes-temporary","code":"patient-gas-better-than-expected","display":"Better than expected"}},{"url":"text","valueString":"Walk dog outside twice a week"}]},{"url":"http://mtnlotus.com/uv/pco/StructureDefinition/pco-goal-attainment-scaling","extension":[{"url":"level","valueCoding":{"system":"http://mtnlotus.com/uv/pco/CodeSystem/pco-gas-codes-temporary","code":"patient-gas-expected-outcome","display":"Expected outcome"}},{"url":"text","valueString":"Walk dog outside once a week"}]},{"url":"http://mtnlotus.com/uv/pco/StructureDefinition/pco-goal-attainment-scaling","extension":[{"url":"level","valueCoding":{"system":"http://mtnlotus.com/uv/pco/CodeSystem/pco-gas-codes-temporary","code":"patient-gas-less-than-expected","display":"Less than expected"}},{"url":"text","valueString":"Does not walk dog but goes outside with dog"}]},{"url":"http://mtnlotus.com/uv/pco/StructureDefinition/pco-goal-attainment-scaling","extension":[{"url":"level","valueCoding":{"system":"http://mtnlotus.com/uv/pco/CodeSystem/pco-gas-codes-temporary","code":"patient-gas-much-less-than-expected","display":"Much less than expected"}},{"url":"text","valueString":"Unable to go outside with dog"}]}],"lifecycleStatus":"active","achievementStatus":{"coding":[{"system":"http://terminology.hl7.org/CodeSystem/goal-achievement","code":"in-progress"}]},"category":[{"coding":[{"system":"http://mtnlotus.com/uv/pco/CodeSystem/pco-category-codes-example","code":"physical-function","display":"Physical Function"}]}],"description":{"text":"Walk dog outside once a week"},"subject":{"reference":"Patient/pcoPatientJones"},"startDate":"2024-04-03","target":[{"dueDate":"2024-09-30"}],"expressedBy":{"reference":"Patient/pcoPatientJones"}},"request":{"method":"PUT","url":"Goal/pcoGoalWalkDogExample"}},{"resource":{"resourceType":"ServiceRequest","id":"pcoPhysicalTherapyReferral","extension":[{"url":"http://hl7.org/fhir/StructureDefinition/resource-pertainsToGoal","valueReference":{"reference":"Goal/pcoGoalWalkDogExample"}}],"status":"active","intent":"plan","code":{"coding":[{"system":"http://snomed.info/sct","code":"91251008","display":"Physical therapy procedure (regime/therapy)"}]},"subject":{"reference":"Patient/pcoPatientJones"},"occurrenceTiming":{"repeat":{"boundsPeriod":{"start":"2024-03-01","end":"2024-04-30"},"frequency":1,"periodUnit":"wk"}},"authoredOn":"2024-02-22","requester":{"reference":"Practitioner/pcoPractitionerAnderson"},"note":[{"text":"Trial of physical therapy focused on strengthening"}]},"request":{"method":"PUT","url":"ServiceRequest/pcoPhysicalTherapyReferral"}}]}