{"resourceType":"Bundle","id":"tests-pcoPatientJones-bundle","type":"transaction","entry":[{"resource":{"resourceType":"Goal","id":"pcoGoalPainLevelExample","lifecycleStatus":"active","achievementStatus":{"coding":[{"system":"http://terminology.hl7.org/CodeSystem/goal-achievement","code":"in-progress"}]},"category":[{"coding":[{"system":"http://mtnlotus.com/uv/pco/CodeSystem/ncqa-goal-domains","code":"physical-function","display":"Physical Function"}]}],"description":{"text":"Maintain pain level below 5 while walking"},"subject":{"reference":"Patient/pcoPatientJones"},"startDate":"2024-02-15","target":[{"dueDate":"2024-06-30"}],"expressedBy":{"reference":"Patient/pcoPatientJones"}},"request":{"method":"PUT","url":"Goal/pcoGoalPainLevelExample"}},{"resource":{"resourceType":"Patient","id":"pcoPatientJones","identifier":[{"use":"official","system":"http://example.org","value":"ee8d4ac0-545c-4501-8d7e-646bfbda1db5"}],"name":[{"family":"Jones","given":["Dorothy"]}],"gender":"female","birthDate":"1947-11-25"},"request":{"method":"PUT","url":"Patient/pcoPatientJones"}},{"resource":{"resourceType":"ServiceRequest","id":"pcoWalkOutsideActionStep","extension":[{"url":"http://hl7.org/fhir/StructureDefinition/resource-pertainsToGoal","valueReference":{"reference":"Goal/pcoGoalWalkDogExample"}}],"status":"active","intent":"plan","code":{"text":"Walk outside without my dog"},"subject":{"reference":"Patient/pcoPatientJones"},"occurrenceTiming":{"repeat":{"boundsPeriod":{"start":"2024-02-22","end":"2024-03-07"},"frequency":2,"periodUnit":"wk"}},"authoredOn":"2024-02-22","requester":{"reference":"Practitioner/pcoPractitionerGonzalez"},"performer":[{"reference":"Patient/pcoPatientJones"}],"patientInstruction":"Start with a short walk to the corner of your block to gain confidence in your walking."},"request":{"method":"PUT","url":"ServiceRequest/pcoWalkOutsideActionStep"}},{"resource":{"resourceType":"CarePlan","id":"pcoPhyicalFunctionCarePlanExample","status":"active","intent":"plan","category":[{"coding":[{"system":"http://mtnlotus.com/uv/pco/CodeSystem/ncqa-goal-domains","code":"physical-function","display":"Physical Function"}]},{"coding":[{"system":"http://mtnlotus.com/uv/pco/CodeSystem/ncqa-goal-domains","code":"independence","display":"Independence"}]},{"coding":[{"system":"http://hl7.org/fhir/us/core/CodeSystem/careplan-category","code":"assess-plan"}]}],"subject":{"reference":"Patient/pcoPatientJones"},"period":{"start":"2024-02-22","end":"2024-09-30"},"goal":[{"reference":"Goal/pcoGoalWalkDogExample"}],"activity":[{"reference":{"reference":"ServiceRequest/pcoWalkOutsideActionStep"}},{"reference":{"reference":"ServiceRequest/pcoPhysicalTherapyReferral"}},{"reference":{"reference":"MedicationRequest/pcoAntiInflammatoryMedication"}}]},"request":{"method":"PUT","url":"CarePlan/pcoPhyicalFunctionCarePlanExample"}},{"resource":{"resourceType":"Observation","id":"pcoGASScoretBaselineExample","status":"final","category":[{"coding":[{"system":"http://terminology.hl7.org/CodeSystem/observation-category","code":"survey"}]}],"code":{"coding":[{"system":"http://loinc.org","code":"68489","display":"Goal attainment scale"}]},"subject":{"reference":"Patient/pcoPatientJones"},"focus":[{"reference":"Goal/pcoGoalWalkDogExample"}],"effectiveDateTime":"2024-04-03T10:15:00Z","performer":[{"reference":"Practitioner/pcoPractitionerGonzalez"}],"valueCodeableConcept":{"coding":[{"system":"http://loinc.org","code":"gas-less-than-expected","display":"Less than expected"}]}},"request":{"method":"PUT","url":"Observation/pcoGASScoretBaselineExample"}},{"resource":{"resourceType":"Observation","id":"pcoWhatMattersRelationshipsExample","status":"final","category":[{"coding":[{"system":"http://terminology.hl7.org/CodeSystem/observation-category","code":"survey"}]}],"code":{"coding":[{"system":"http://mtnlotus.com/uv/pco/CodeSystem/va-whole-health","code":"relationships","display":"Family, Friends & Co-Workers"}]},"subject":{"reference":"Patient/pcoPatientJones"},"effectiveDateTime":"2024-03-27T15:20:00Z","performer":[{"reference":"Patient/pcoPatientJones"}],"component":[{"code":{"coding":[{"system":"http://mtnlotus.com/uv/pco/CodeSystem/what-matters-rating","code":"now-rating"}]},"valueInteger":3},{"code":{"coding":[{"system":"http://mtnlotus.com/uv/pco/CodeSystem/what-matters-rating","code":"now-reasons"}]},"valueString":"I am still recovering from isolation during COVID and now physical difficulty leaving my home."},{"code":{"coding":[{"system":"http://mtnlotus.com/uv/pco/CodeSystem/what-matters-rating","code":"future-rating"}]},"valueInteger":9},{"code":{"coding":[{"system":"http://mtnlotus.com/uv/pco/CodeSystem/what-matters-rating","code":"future-changes"}]},"valueString":"I want to walk outside and visit friends in the park."}]},"request":{"method":"PUT","url":"Observation/pcoWhatMattersRelationshipsExample"}},{"resource":{"resourceType":"Observation","id":"pcoGASScorePractitionerFollowupExample","status":"final","category":[{"coding":[{"system":"http://terminology.hl7.org/CodeSystem/observation-category","code":"survey"}]}],"code":{"coding":[{"system":"http://loinc.org","code":"68490","display":"Practitioner follow-up goal attainment scaling score"}]},"subject":{"reference":"Patient/pcoPatientJones"},"focus":[{"reference":"Goal/pcoGoalWalkDogExample"}],"effectiveDateTime":"2024-05-22T10:15:00Z","performer":[{"reference":"Practitioner/pcoPractitionerGonzalez"}],"valueCodeableConcept":{"coding":[{"system":"http://loinc.org","code":"gas-expected-outcome","display":"Expected outcome"}]}},"request":{"method":"PUT","url":"Observation/pcoGASScorePractitionerFollowupExample"}},{"resource":{"resourceType":"MedicationRequest","id":"pcoAntiInflammatoryMedication","status":"active","intent":"order","medicationCodeableConcept":{"coding":[{"system":"http://www.nlm.nih.gov/research/umls/rxnorm","code":"2550740","display":"Aleve Arthritis Pain 1 % Topical Gel"}]},"subject":{"reference":"Patient/pcoPatientJones"},"requester":{"reference":"Practitioner/pcoPractitionerAnderson"},"dosageInstruction":[{"patientInstruction":"Anti-inflammatory gel applied to knee 30 minutes before exercise","timing":{"repeat":{"boundsPeriod":{"start":"2024-02-22","end":"2024-06-30"}}},"asNeededBoolean":true}]},"request":{"method":"PUT","url":"MedicationRequest/pcoAntiInflammatoryMedication"}},{"resource":{"resourceType":"Practitioner","id":"pcoPractitionerGonzalez","identifier":[{"use":"official","system":"http://example.org","value":"ee8d4ac0-545c-4501-8d7e-646bfbda6cd7"}],"name":[{"text":"Maria Gonzalez, NBC-HWC","family":"Gonzalez","given":["Maria"],"suffix":["NBC-HWC"]}],"gender":"female"},"request":{"method":"PUT","url":"Practitioner/pcoPractitionerGonzalez"}},{"resource":{"resourceType":"Patient","id":"pcoPatientLopez","identifier":[{"use":"official","system":"http://example.org","value":"ee8d4ac0-545c-4501-8d7e-646bfbda1ge3"}],"name":[{"family":"Lopez","given":["Camila"]}],"gender":"female","birthDate":"1959-07-16"},"request":{"method":"PUT","url":"Patient/pcoPatientLopez"}},{"resource":{"resourceType":"Practitioner","id":"pcoPractitionerAnderson","identifier":[{"use":"official","system":"http://example.org","value":"ee8d4ac0-545c-4501-8d7e-646bfbda6de8"}],"name":[{"text":"John Anderson, MD","family":"Anderson","given":["John"],"suffix":["MD"]}],"gender":"male"},"request":{"method":"PUT","url":"Practitioner/pcoPractitionerAnderson"}},{"resource":{"resourceType":"Observation","id":"pcoGASScorePatientFollowupExample","status":"final","category":[{"coding":[{"system":"http://terminology.hl7.org/CodeSystem/observation-category","code":"survey"}]}],"code":{"coding":[{"system":"http://loinc.org","code":"68491","display":"Patient follow-up goal attainment scaling score"}]},"subject":{"reference":"Patient/pcoPatientJones"},"focus":[{"reference":"Goal/pcoGoalWalkDogExample"}],"effectiveDateTime":"2024-05-10T10:15:00Z","performer":[{"reference":"Patient/pcoPatientJones"}],"valueCodeableConcept":{"coding":[{"system":"http://loinc.org","code":"gas-better-than-expected","display":"Better than expected"}]}},"request":{"method":"PUT","url":"Observation/pcoGASScorePatientFollowupExample"}},{"resource":{"resourceType":"Goal","id":"pcoGoalAnxietyExample","lifecycleStatus":"active","achievementStatus":{"coding":[{"system":"http://terminology.hl7.org/CodeSystem/goal-achievement","code":"in-progress"}]},"category":[{"coding":[{"system":"http://mtnlotus.com/uv/pco/CodeSystem/va-whole-health","code":"mind","display":"Power of the Mind"}]}],"description":{"text":"Reduce to mild anxiety level score"},"subject":{"reference":"Patient/pcoPatientLopez"},"startDate":"2024-08-11","target":[{"measure":{"coding":[{"system":"http://loinc.org","code":"70274-6","display":"Generalized anxiety disorder 7 item (GAD-7) total score [Reported.PHQ]"}]},"detailQuantity":{"value":6,"comparator":"<","unit":"score","system":"http://unitsofmeasure.org","code":"{score}"},"dueDate":"2024-12-31"}],"expressedBy":{"reference":"Practitioner/pcoPractitionerAnderson"}},"request":{"method":"PUT","url":"Goal/pcoGoalAnxietyExample"}},{"resource":{"resourceType":"Goal","id":"pcoGoalWalkDogExample","extension":[{"url":"http://mtnlotus.com/uv/pco/StructureDefinition/pco-goal-attainment-scaling","extension":[{"url":"level","valueCoding":{"system":"http://loinc.org","code":"gas-much-better-than-expected","display":"Much better than expected"}},{"url":"text","valueString":"Walk dog outside three times a week"}]},{"url":"http://mtnlotus.com/uv/pco/StructureDefinition/pco-goal-attainment-scaling","extension":[{"url":"level","valueCoding":{"system":"http://loinc.org","code":"gas-better-than-expected","display":"Better than expected"}},{"url":"text","valueString":"Walk dog outside twice a week"}]},{"url":"http://mtnlotus.com/uv/pco/StructureDefinition/pco-goal-attainment-scaling","extension":[{"url":"level","valueCoding":{"system":"http://loinc.org","code":"gas-expected-outcome","display":"Expected outcome"}},{"url":"text","valueString":"Walk dog outside once a week"}]},{"url":"http://mtnlotus.com/uv/pco/StructureDefinition/pco-goal-attainment-scaling","extension":[{"url":"level","valueCoding":{"system":"http://loinc.org","code":"gas-less-than-expected","display":"Less than expected"}},{"url":"text","valueString":"Does not walk dog but goes outside with dog"}]},{"url":"http://mtnlotus.com/uv/pco/StructureDefinition/pco-goal-attainment-scaling","extension":[{"url":"level","valueCoding":{"system":"http://loinc.org","code":"gas-much-less-than-expected","display":"Much less than expected"}},{"url":"text","valueString":"Unable to go outside with dog"}]}],"lifecycleStatus":"active","achievementStatus":{"coding":[{"system":"http://terminology.hl7.org/CodeSystem/goal-achievement","code":"in-progress"}]},"category":[{"coding":[{"system":"http://mtnlotus.com/uv/pco/CodeSystem/ncqa-goal-domains","code":"physical-function","display":"Physical Function"}]}],"description":{"text":"Walk dog outside once a week"},"subject":{"reference":"Patient/pcoPatientJones"},"startDate":"2024-04-03","target":[{"dueDate":"2024-09-30"}],"expressedBy":{"reference":"Patient/pcoPatientJones"},"addresses":[{"reference":"Observation/pcoWhatMattersBodyExample","display":"What Matters: Moving the Body"},{"reference":"Observation/pcoWhatMattersRelationshipsExample","display":"What Matters: Family & Friends"}]},"request":{"method":"PUT","url":"Goal/pcoGoalWalkDogExample"}},{"resource":{"resourceType":"ServiceRequest","id":"pcoMindfulnessSupportProgram","extension":[{"url":"http://hl7.org/fhir/StructureDefinition/resource-pertainsToGoal","valueReference":{"reference":"Goal/pcoGoalAnxietyExample"}}],"status":"active","intent":"plan","code":{"coding":[{"system":"http://snomed.info/sct","code":"1259023009","display":"Mindfulness Based Stress Reduction program (regime/therapy)"}]},"subject":{"reference":"Patient/pcoPatientLopez"},"occurrenceTiming":{"repeat":{"boundsPeriod":{"start":"2024-08-11","end":"2024-10-31"},"frequency":1,"periodUnit":"wk"}},"authoredOn":"2024-08-11","requester":{"reference":"Practitioner/pcoPractitionerAnderson"},"note":[{"text":"Trial of mindfulness coaching to support anxiety management"}]},"request":{"method":"PUT","url":"ServiceRequest/pcoMindfulnessSupportProgram"}},{"resource":{"resourceType":"Observation","id":"pcoPROMScoreAnxietyExample","status":"final","category":[{"coding":[{"system":"http://terminology.hl7.org/CodeSystem/observation-category","code":"survey"}]}],"code":{"coding":[{"system":"http://loinc.org","code":"70274-6","display":"Generalized anxiety disorder 7 item (GAD-7) total score [Reported.PHQ]"}]},"subject":{"reference":"Patient/pcoPatientLopez"},"focus":[{"reference":"Goal/pcoGoalAnxietyExample"}],"effectiveDateTime":"2024-09-19T13:15:00Z","performer":[{"reference":"Patient/pcoPatientLopez"}],"valueQuantity":{"value":10,"unit":"score","system":"http://unitsofmeasure.org","code":"{score}"}},"request":{"method":"PUT","url":"Observation/pcoPROMScoreAnxietyExample"}},{"resource":{"resourceType":"ServiceRequest","id":"pcoPhysicalTherapyReferral","extension":[{"url":"http://hl7.org/fhir/StructureDefinition/resource-pertainsToGoal","valueReference":{"reference":"Goal/pcoGoalWalkDogExample"}}],"status":"active","intent":"plan","code":{"coding":[{"system":"http://snomed.info/sct","code":"91251008","display":"Physical therapy procedure (regime/therapy)"}]},"subject":{"reference":"Patient/pcoPatientJones"},"occurrenceTiming":{"repeat":{"boundsPeriod":{"start":"2024-03-01","end":"2024-04-30"},"frequency":1,"periodUnit":"wk"}},"authoredOn":"2024-02-22","requester":{"reference":"Practitioner/pcoPractitionerAnderson"},"note":[{"text":"Trial of physical therapy focused on strengthening"}]},"request":{"method":"PUT","url":"ServiceRequest/pcoPhysicalTherapyReferral"}},{"resource":{"resourceType":"Observation","id":"pcoWhatMattersBodyExample","status":"final","category":[{"coding":[{"system":"http://terminology.hl7.org/CodeSystem/observation-category","code":"survey"}]}],"code":{"coding":[{"system":"http://mtnlotus.com/uv/pco/CodeSystem/va-whole-health","code":"body","display":"Moving the Body"}]},"subject":{"reference":"Patient/pcoPatientJones"},"effectiveDateTime":"2024-03-27T15:10:00Z","performer":[{"reference":"Patient/pcoPatientJones"}],"component":[{"code":{"coding":[{"system":"http://mtnlotus.com/uv/pco/CodeSystem/what-matters-rating","code":"now-rating"}]},"valueInteger":2},{"code":{"coding":[{"system":"http://mtnlotus.com/uv/pco/CodeSystem/what-matters-rating","code":"now-reasons"}]},"valueString":"My knee pain prevents me from walking."},{"code":{"coding":[{"system":"http://mtnlotus.com/uv/pco/CodeSystem/what-matters-rating","code":"future-rating"}]},"valueInteger":7}]},"request":{"method":"PUT","url":"Observation/pcoWhatMattersBodyExample"}},{"resource":{"resourceType":"CarePlan","id":"pcoAnxietyCarePlanExample","status":"active","intent":"plan","category":[{"coding":[{"system":"http://mtnlotus.com/uv/pco/CodeSystem/va-whole-health","code":"mind","display":"Power of the Mind"}]},{"coding":[{"system":"http://mtnlotus.com/uv/pco/CodeSystem/ncqa-goal-domains","code":"emotional-and-mental-health","display":"Emotional And Mental Health"}]},{"coding":[{"system":"http://hl7.org/fhir/us/core/CodeSystem/careplan-category","code":"assess-plan"}]}],"subject":{"reference":"Patient/pcoPatientLopez"},"period":{"start":"2024-08-11","end":"2025-01-31"},"goal":[{"reference":"Goal/pcoGoalAnxietyExample"}],"activity":[{"reference":{"reference":"ServiceRequest/pcoMindfulnessSupportProgram"}}]},"request":{"method":"PUT","url":"CarePlan/pcoAnxietyCarePlanExample"}}]}