{"resourceType":"Bundle","id":"tests-pcoPatientJones-bundle","type":"transaction","entry":[{"resource":{"resourceType":"Goal","id":"pcoGoalPainLevelExample","lifecycleStatus":"active","achievementStatus":{"coding":[{"system":"http://terminology.hl7.org/CodeSystem/goal-achievement","code":"in-progress"}]},"category":[{"coding":[{"system":"http://mtnlotus.com/uv/pco/CodeSystem/ncqa-goal-domains","code":"physical-function","display":"Physical Function"}]}],"description":{"text":"Maintain pain level below 5 while walking"},"subject":{"reference":"Patient/pcoPatientJones"},"startDate":"2024-02-15","target":[{"dueDate":"2024-06-30"}],"expressedBy":{"reference":"Patient/pcoPatientJones"}},"request":{"method":"PUT","url":"Goal/pcoGoalPainLevelExample"}},{"resource":{"resourceType":"Patient","id":"pcoPatientJones","identifier":[{"use":"official","system":"http://example.org","value":"ee8d4ac0-545c-4501-8d7e-646bfbda1db5"}],"name":[{"family":"Jones","given":["Dorothy"]}],"gender":"female","birthDate":"1947-11-25"},"request":{"method":"PUT","url":"Patient/pcoPatientJones"}},{"resource":{"resourceType":"ServiceRequest","id":"pcoWalkOutsideActionStep","extension":[{"url":"http://hl7.org/fhir/StructureDefinition/resource-pertainsToGoal","valueReference":{"reference":"Goal/pcoGoalWalkDogExample"}}],"status":"active","intent":"plan","code":{"text":"Walk outside without my dog"},"subject":{"reference":"Patient/pcoPatientJones"},"occurrenceTiming":{"repeat":{"boundsPeriod":{"start":"2024-02-22","end":"2024-03-07"},"frequency":2,"periodUnit":"wk"}},"authoredOn":"2024-02-22","requester":{"reference":"Practitioner/pcoPractitionerGonzalez"},"performer":[{"reference":"Patient/pcoPatientJones"}],"patientInstruction":"Start with a short walk to the corner of your block to gain confidence in your walking."},"request":{"method":"PUT","url":"ServiceRequest/pcoWalkOutsideActionStep"}},{"resource":{"resourceType":"ImplementationGuide","id":"mtnlotus.fhir.uv.pco","url":"http://mtnlotus.com/uv/pco/ImplementationGuide/mtnlotus.fhir.uv.pco","version":"0.1.0","name":"PCO","title":"Person-Centered Outcomes","status":"draft","publisher":"Mountain Lotus WellBeing LLC","contact":[{"name":"Mountain Lotus WellBeing LLC","telecom":[{"system":"url","value":"http://mtnlotus.com"}]}],"description":"Person-Centered Outcomes (PCO) FHIR Implementation Guide","jurisdiction":[{"coding":[{"system":"http://unstats.un.org/unsd/methods/m49/m49.htm","code":"001","display":"World"}]}],"packageId":"mtnlotus.fhir.uv.pco","license":"CC0-1.0","fhirVersion":["4.0.1"],"dependsOn":[{"id":"hl7_fhir_us_core","uri":"http://hl7.org/fhir/us/core/ImplementationGuide/hl7.fhir.us.core","packageId":"hl7.fhir.us.core","version":"6.1.0"}],"definition":{"resource":[{"reference":{"reference":"CarePlan/pcoAnxietyCarePlanExample"},"name":"Care Plan for PCO Anxiety Goal","description":"Care Plan for a person-centered goal using a PROM score measure.","exampleCanonical":"http://mtnlotus.com/uv/pco/StructureDefinition/pco-care-plan"},{"reference":{"reference":"CarePlan/pcoPhyicalFunctionCarePlanExample"},"name":"Care Plan for person-centered goal","description":"Care Plan for a person-centered goal with action steps for achieving what matters most to that person.","exampleCanonical":"http://mtnlotus.com/uv/pco/StructureDefinition/pco-care-plan"},{"reference":{"reference":"ServiceRequest/pcoMindfulnessSupportProgram"},"name":"Care Plan: Action step for mindfulness program","description":"Care Plan activity: Mindfulness coaching to support anxiety management","exampleBoolean":true},{"reference":{"reference":"MedicationRequest/pcoAntiInflammatoryMedication"},"name":"Care Plan: Anti-Inflammatory Medication","description":"Care Plan activity: Anti-inflammatory gel for knee pain to enable walking","exampleBoolean":true},{"reference":{"reference":"ServiceRequest/pcoPhysicalTherapyReferral"},"name":"Care Plan: Clinical action step for PT","description":"Care Plan activity: Physical therapy to relieve pain related to walking","exampleBoolean":true},{"reference":{"reference":"ServiceRequest/pcoWalkOutsideActionStep"},"name":"Care Plan: Personal action step","description":"Care Plan activity: Initial personal action step toward goal of walking dog outside","exampleBoolean":true},{"reference":{"reference":"ValueSet/caregiver-gas-followup"},"name":"Caregiver Follow-Up GAS Score","description":"The caregiver follow-up score indicates how the caregiver rated either the patient's progress or their own progress on goal attainment scaling.","exampleBoolean":false},{"reference":{"reference":"StructureDefinition/pco-caregiver-gas-score"},"name":"Caregiver Goal Attainment Scaling (GAS) score","description":"The caregiver follow-up score indicates how the caregiver rated either the patient's progress or their own progress on goal attainment scaling.","exampleBoolean":false},{"reference":{"reference":"CodeSystem/pco"},"name":"Codes for PCO","description":"Codes to identify content associated with this IG","exampleBoolean":false},{"reference":{"reference":"Patient/pcoPatientLopez"},"name":"Example Patient Camila","description":"Camila Lopez","exampleBoolean":true},{"reference":{"reference":"Patient/pcoPatientJones"},"name":"Example Patient Dorothy","description":"Dorothy Jones","exampleBoolean":true},{"reference":{"reference":"Library/FHIRHelpers"},"name":"FHIRHelpers","exampleBoolean":false},{"reference":{"reference":"Observation/pcoPROMScoreAnxietyExample"},"name":"GAD-7 PROM Follow-up Score","description":"Follow-up GAD-7 PROM score observation recorded by a Patient showing goal progress.","exampleCanonical":"http://mtnlotus.com/uv/pco/StructureDefinition/pco-prom-score"},{"reference":{"reference":"Questionnaire/69737-5"},"name":"Generalized anxiety disorder 7 item","exampleBoolean":false},{"reference":{"reference":"StructureDefinition/pco-goal-attainment-scaling"},"name":"Goal Attainment Scaling","description":"Goal Attainment Scaling (GAS) is an extension used to specify five levels of attainment for a person-centered goal.","exampleBoolean":false},{"reference":{"reference":"CodeSystem/pco-gas-codes-temporary"},"name":"Goal Attainment Scaling (GAS) Codes","description":"Temporary code system for GAS codes until publication by LOINC. All of these codes have been submitted to LOINC.","exampleBoolean":false},{"reference":{"reference":"Goal/pcoGoalAnxietyExample"},"name":"Goal for GAD-7 PROM Outcome","description":"Person-centered goal with a PROM outcome target for GAD-7 score.","exampleCanonical":"http://mtnlotus.com/uv/pco/StructureDefinition/pco-goal-prom-profile"},{"reference":{"reference":"Goal/pcoGoalWalkDogExample"},"name":"Goal with GAS","description":"Person-centered goal with attainment scaling extensions","exampleCanonical":"http://mtnlotus.com/uv/pco/StructureDefinition/pco-gas-goal-profile"},{"reference":{"reference":"Goal/pcoGoalPainLevelExample"},"name":"Goal without GAS or PROM","description":"Person-centered goal without attainment scaling or PROM","exampleCanonical":"http://mtnlotus.com/uv/pco/StructureDefinition/pco-goal-profile"},{"reference":{"reference":"Library/GoalAttainmentLogic"},"name":"GoalAttainmentLogic","exampleBoolean":false},{"reference":{"reference":"Library/GoalFollowUpMeasure"},"name":"GoalFollowUpMeasure","exampleBoolean":false},{"reference":{"reference":"Library/GoalIdentificationMeasure"},"name":"GoalIdentificationMeasure","exampleBoolean":false},{"reference":{"reference":"Practitioner/pcoPractitionerGonzalez"},"name":"Health & Wellness Coach","description":"Maria Gonzalez, NBC-HWC","exampleBoolean":true},{"reference":{"reference":"CodeSystem/ncqa-goal-domains"},"name":"NCQA Goal Domains","description":"NCQA goal domain codes used to identify the category for PCO resources.","exampleBoolean":false},{"reference":{"reference":"ValueSet/patient-gas-followup"},"name":"Patient Follow-Up GAS Score","description":"The patient follow-up score indicates how the patient rated their own progress on goal attainment scaling.","exampleBoolean":false},{"reference":{"reference":"Observation/pcoGASScorePatientBaselineExample"},"name":"Patient GAS Baseline Score","description":"Baseline GAS score observation recorded by a Patient at start of goal.","exampleCanonical":"http://mtnlotus.com/uv/pco/StructureDefinition/pco-patient-gas-score"},{"reference":{"reference":"Observation/pcoGASScorePatientFollowupExample"},"name":"Patient GAS Follow-up Score","description":"Follow-up GAS score observation recorded by a Patient showing goal progress.","exampleCanonical":"http://mtnlotus.com/uv/pco/StructureDefinition/pco-patient-gas-score"},{"reference":{"reference":"StructureDefinition/pco-patient-gas-score"},"name":"Patient Goal Attainment Scaling (GAS) score","description":"The patient follow-up score indicates how the patient rated their own progress on goal attainment scaling.","exampleBoolean":false},{"reference":{"reference":"StructureDefinition/pco-prom-score"},"name":"Patient-Reported Outcome Measure (PROM) score","description":"This observation records how a patient rated their own progress score using a PROM assessment.","exampleBoolean":false},{"reference":{"reference":"ValueSet/pco-category-valueset"},"name":"PCO Categories","description":"Example value set to identify the category for PCO resources.","exampleBoolean":false},{"reference":{"reference":"Library/PCOCommon"},"name":"PCOCommon","exampleBoolean":false},{"reference":{"reference":"StructureDefinition/pco-care-plan"},"name":"Person-Centered Care Plan","description":"A person-centered care plan SHALL reference a person-centered goal and SHALL include action steps that support progress toward achievement of the plan’s goals and desired outcomes. A plan SHOULD address the person’s stated priorities for what matters most to them. Action steps may include both treatment procedures and self-care steps identified by the person.","exampleBoolean":false},{"reference":{"reference":"StructureDefinition/pco-goal-profile"},"name":"Person-Centered Goal","description":"Person-centered goal focused on what matters most to an individual. A Person-centered goal SHALL include either a Person-Centered Outcome category, or address a What Matters assessment.","exampleBoolean":false},{"reference":{"reference":"StructureDefinition/pco-gas-goal-profile"},"name":"Person-Centered Goal Attainment","description":"Person-centered goal with goal attainment scaling.","exampleBoolean":false},{"reference":{"reference":"Measure/GoalFollowUpMeasure"},"name":"Person-Centered Goal Follow-Up","description":"Goal Follow-up: % of individuals 18 years of age or older with a complex care need who received follow-up on their PCO goal within two weeks to six months of when the PCO goal and GAS or PROM were identified.","exampleBoolean":false},{"reference":{"reference":"StructureDefinition/pco-goal-prom-profile"},"name":"Person-Centered Goal for PROMs","description":"Person-centered goal with a Patient-Reported Outcome Measure (PROM) score target.","exampleBoolean":false},{"reference":{"reference":"Measure/GoalIdentificationMeasure"},"name":"Person-Centered Goal Identification","description":"Goal Identification: % of individuals 18 years of age and older with a complex care need who had a PCO goal identified resulting in completion of goal attainment scaling (GAS) or a Patient-Reported Outcome Measure (PROM) and development of an action plan.","exampleBoolean":false},{"reference":{"reference":"StructureDefinition/pco-progress-score-observation"},"name":"Person-Centered Progress Score","description":"A progress score observation for a person-centered goal.","exampleBoolean":false},{"reference":{"reference":"Questionnaire/44249-1"},"name":"PHQ-9 quick depression assessment panel","exampleBoolean":false},{"reference":{"reference":"ValueSet/practitioner-gas-followup"},"name":"Practitioner Follow-Up GAS Score","description":"The practitioner follow-up score indicates how the practitioner rated the patient's progress on goal attainment scaling.","exampleBoolean":false},{"reference":{"reference":"Observation/pcoGASScorePractitionerFollowupExample"},"name":"Practitioner GAS Follow-up Score","description":"Follow-up GAS score observation recorded by a Practitioner showing goal progress.","exampleCanonical":"http://mtnlotus.com/uv/pco/StructureDefinition/pco-practitioner-gas-score"},{"reference":{"reference":"StructureDefinition/pco-practitioner-gas-score"},"name":"Practitioner Goal Attainment Scaling (GAS) score","description":"The practitioner follow-up score indicates how the practitioner rated the patient's progress on goal attainment scaling.","exampleBoolean":false},{"reference":{"reference":"Practitioner/pcoPractitionerAnderson"},"name":"Primary Care Physician","description":"John Anderson, MD","exampleBoolean":true},{"reference":{"reference":"ValueSet/prom-target-measures"},"name":"PROM Target Measures","description":"Target measure codes used to track progress on patient-reported outcome measures (PROMs).","exampleBoolean":false},{"reference":{"reference":"CodeSystem/va-whole-health"},"name":"VA Whole Health Concepts","description":"Code system to identify \"What Matters\" concepts from the VA Whole Health appraoch and Circle of Health.","exampleBoolean":false},{"reference":{"reference":"StructureDefinition/pco-what-matters-assessment"},"name":"What Matters Assessment","description":"Assessment observation for one aspect of What Matters Most to a person, with component values rating where a person is now and where they would like to be in the future.","exampleBoolean":false},{"reference":{"reference":"ValueSet/what-matters-focus-areas"},"name":"What Matters Focus Areas","description":"Example value set to identify focus areas from the VA Circle of Health. Whole Health is VA’s approach to care that supports your health and well-being. Whole Health centers around What Matters to you, not what is the matter with you. This means your health team will get to know you as a person, before working with you to develop a personalized health plan based on your values, needs, and goals.","exampleBoolean":false},{"reference":{"reference":"CodeSystem/what-matters-rating"},"name":"What Matters Rating Concepts","description":"Code system to identify \"What Matters\" rating concepts.","exampleBoolean":false},{"reference":{"reference":"Observation/pcoWhatMattersRelationshipsExample"},"name":"What Matters: Family & Friends","description":"What Matters assessment observation recorded by a Patient as preparation for creating PCO goals and CarePlan action steps.","exampleCanonical":"http://mtnlotus.com/uv/pco/StructureDefinition/pco-what-matters-assessment"},{"reference":{"reference":"Observation/pcoWhatMattersBodyExample"},"name":"What Matters: Moving the Body","description":"What Matters assessment observation recorded by a Patient as preparation for creating PCO goals and CarePlan action steps.","exampleCanonical":"http://mtnlotus.com/uv/pco/StructureDefinition/pco-what-matters-assessment"},{"reference":{"reference":"Library/WhatMattersLogic"},"name":"WhatMattersLogic","exampleBoolean":false}],"page":{"nameUrl":"toc.html","title":"Table of Contents","generation":"html","page":[{"nameUrl":"index.html","title":"Home","generation":"markdown"}]},"parameter":[{"code":"copyrightyear","value":"2024+"},{"code":"releaselabel","value":"ci-build"},{"code":"no-narrative","value":"Bundle/*"},{"code":"no-narrative","value":"DiagnosticReport/*"},{"code":"no-narrative","value":"Goal/*"},{"code":"no-narrative","value":"Observation/*"},{"code":"no-narrative","value":"Patient/*"},{"code":"no-narrative","value":"ServiceRequest/*"},{"code":"path-data","value":"input/_data"},{"code":"path-resource","value":"input/resources/library"},{"code":"path-resource","value":"input/resources/measure"},{"code":"path-resource","value":"input/resources/questionnaire"},{"code":"path-liquid","value":"templates/liquid"}]}},"request":{"method":"PUT","url":"ImplementationGuide/mtnlotus.fhir.uv.pco"}},{"resource":{"resourceType":"CarePlan","id":"pcoPhyicalFunctionCarePlanExample","status":"active","intent":"plan","category":[{"coding":[{"system":"http://mtnlotus.com/uv/pco/CodeSystem/ncqa-goal-domains","code":"physical-function","display":"Physical Function"}]},{"coding":[{"system":"http://mtnlotus.com/uv/pco/CodeSystem/ncqa-goal-domains","code":"independence","display":"Independence"}]},{"coding":[{"system":"http://hl7.org/fhir/us/core/CodeSystem/careplan-category","code":"assess-plan"}]}],"subject":{"reference":"Patient/pcoPatientJones"},"period":{"start":"2024-02-22","end":"2024-09-30"},"goal":[{"reference":"Goal/pcoGoalWalkDogExample"}],"activity":[{"reference":{"reference":"ServiceRequest/pcoWalkOutsideActionStep"}},{"reference":{"reference":"ServiceRequest/pcoPhysicalTherapyReferral"}},{"reference":{"reference":"MedicationRequest/pcoAntiInflammatoryMedication"}}]},"request":{"method":"PUT","url":"CarePlan/pcoPhyicalFunctionCarePlanExample"}},{"resource":{"resourceType":"Observation","id":"pcoWhatMattersRelationshipsExample","status":"final","category":[{"coding":[{"system":"http://terminology.hl7.org/CodeSystem/observation-category","code":"survey"}]}],"code":{"coding":[{"system":"http://mtnlotus.com/uv/pco/CodeSystem/va-whole-health","code":"relationships","display":"Family, Friends & Co-Workers"}]},"subject":{"reference":"Patient/pcoPatientJones"},"effectiveDateTime":"2024-03-27T15:20:00Z","performer":[{"reference":"Patient/pcoPatientJones"}],"component":[{"code":{"coding":[{"system":"http://mtnlotus.com/uv/pco/CodeSystem/what-matters-rating","code":"now-rating"}]},"valueInteger":3},{"code":{"coding":[{"system":"http://mtnlotus.com/uv/pco/CodeSystem/what-matters-rating","code":"now-reasons"}]},"valueString":"I am still recovering from isolation during COVID and now physical difficulty leaving my home."},{"code":{"coding":[{"system":"http://mtnlotus.com/uv/pco/CodeSystem/what-matters-rating","code":"future-rating"}]},"valueInteger":9},{"code":{"coding":[{"system":"http://mtnlotus.com/uv/pco/CodeSystem/what-matters-rating","code":"future-changes"}]},"valueString":"I want to walk outside and visit friends in the park."}]},"request":{"method":"PUT","url":"Observation/pcoWhatMattersRelationshipsExample"}},{"resource":{"resourceType":"Observation","id":"pcoGASScorePractitionerFollowupExample","status":"final","category":[{"coding":[{"system":"http://terminology.hl7.org/CodeSystem/observation-category","code":"survey"}]}],"code":{"coding":[{"system":"http://mtnlotus.com/uv/pco/CodeSystem/pco-gas-codes-temporary","code":"goal-attainment-scaling"}]},"subject":{"reference":"Patient/pcoPatientJones"},"focus":[{"reference":"Goal/pcoGoalWalkDogExample"}],"effectiveDateTime":"2024-05-22T10:15:00Z","performer":[{"reference":"Practitioner/pcoPractitionerGonzalez"}],"valueCodeableConcept":{"coding":[{"system":"http://mtnlotus.com/uv/pco/CodeSystem/pco-gas-codes-temporary","code":"practitioner-gas-expected-outcome","display":"Expected outcome"}]}},"request":{"method":"PUT","url":"Observation/pcoGASScorePractitionerFollowupExample"}},{"resource":{"resourceType":"MedicationRequest","id":"pcoAntiInflammatoryMedication","status":"active","intent":"order","medicationCodeableConcept":{"coding":[{"system":"http://www.nlm.nih.gov/research/umls/rxnorm","code":"2550740","display":"Aleve Arthritis Pain 1 % Topical Gel"}]},"subject":{"reference":"Patient/pcoPatientJones"},"requester":{"reference":"Practitioner/pcoPractitionerAnderson"},"dosageInstruction":[{"patientInstruction":"Anti-inflammatory gel applied to knee 30 minutes before exercise","timing":{"repeat":{"boundsPeriod":{"start":"2024-02-22","end":"2024-06-30"}}},"asNeededBoolean":true}]},"request":{"method":"PUT","url":"MedicationRequest/pcoAntiInflammatoryMedication"}},{"resource":{"resourceType":"Practitioner","id":"pcoPractitionerGonzalez","identifier":[{"use":"official","system":"http://example.org","value":"ee8d4ac0-545c-4501-8d7e-646bfbda6cd7"}],"name":[{"text":"Maria Gonzalez, NBC-HWC","family":"Gonzalez","given":["Maria"],"suffix":["NBC-HWC"]}],"gender":"female"},"request":{"method":"PUT","url":"Practitioner/pcoPractitionerGonzalez"}},{"resource":{"resourceType":"Observation","id":"pcoGASScorePatientBaselineExample","status":"final","category":[{"coding":[{"system":"http://terminology.hl7.org/CodeSystem/observation-category","code":"survey"}]}],"code":{"coding":[{"system":"http://mtnlotus.com/uv/pco/CodeSystem/pco-gas-codes-temporary","code":"goal-attainment-scaling"}]},"subject":{"reference":"Patient/pcoPatientJones"},"focus":[{"reference":"Goal/pcoGoalWalkDogExample"}],"effectiveDateTime":"2024-04-03T10:15:00Z","performer":[{"reference":"Patient/pcoPatientJones"}],"valueCodeableConcept":{"coding":[{"system":"http://mtnlotus.com/uv/pco/CodeSystem/pco-gas-codes-temporary","code":"patient-gas-less-than-expected","display":"Less than expected"}]}},"request":{"method":"PUT","url":"Observation/pcoGASScorePatientBaselineExample"}},{"resource":{"resourceType":"Patient","id":"pcoPatientLopez","identifier":[{"use":"official","system":"http://example.org","value":"ee8d4ac0-545c-4501-8d7e-646bfbda1ge3"}],"name":[{"family":"Lopez","given":["Camila"]}],"gender":"female","birthDate":"1959-07-16"},"request":{"method":"PUT","url":"Patient/pcoPatientLopez"}},{"resource":{"resourceType":"Practitioner","id":"pcoPractitionerAnderson","identifier":[{"use":"official","system":"http://example.org","value":"ee8d4ac0-545c-4501-8d7e-646bfbda6de8"}],"name":[{"text":"John Anderson, MD","family":"Anderson","given":["John"],"suffix":["MD"]}],"gender":"male"},"request":{"method":"PUT","url":"Practitioner/pcoPractitionerAnderson"}},{"resource":{"resourceType":"Observation","id":"pcoGASScorePatientFollowupExample","status":"final","category":[{"coding":[{"system":"http://terminology.hl7.org/CodeSystem/observation-category","code":"survey"}]}],"code":{"coding":[{"system":"http://mtnlotus.com/uv/pco/CodeSystem/pco-gas-codes-temporary","code":"goal-attainment-scaling"}]},"subject":{"reference":"Patient/pcoPatientJones"},"focus":[{"reference":"Goal/pcoGoalWalkDogExample"}],"effectiveDateTime":"2024-05-10T10:15:00Z","performer":[{"reference":"Patient/pcoPatientJones"}],"valueCodeableConcept":{"coding":[{"system":"http://mtnlotus.com/uv/pco/CodeSystem/pco-gas-codes-temporary","code":"patient-gas-better-than-expected","display":"Better than expected"}]}},"request":{"method":"PUT","url":"Observation/pcoGASScorePatientFollowupExample"}},{"resource":{"resourceType":"Goal","id":"pcoGoalAnxietyExample","lifecycleStatus":"active","achievementStatus":{"coding":[{"system":"http://terminology.hl7.org/CodeSystem/goal-achievement","code":"in-progress"}]},"category":[{"coding":[{"system":"http://mtnlotus.com/uv/pco/CodeSystem/va-whole-health","code":"mind","display":"Power of the Mind"}]}],"description":{"text":"Reduce to mild anxiety level score"},"subject":{"reference":"Patient/pcoPatientLopez"},"startDate":"2024-08-11","target":[{"measure":{"coding":[{"system":"http://loinc.org","code":"70274-6","display":"Generalized anxiety disorder 7 item (GAD-7) total score"}]},"detailQuantity":{"value":6,"comparator":"<","unit":"score","system":"http://unitsofmeasure.org","code":"{score}"},"dueDate":"2024-12-31"}],"expressedBy":{"reference":"Practitioner/pcoPractitionerAnderson"}},"request":{"method":"PUT","url":"Goal/pcoGoalAnxietyExample"}},{"resource":{"resourceType":"Goal","id":"pcoGoalWalkDogExample","extension":[{"url":"http://mtnlotus.com/uv/pco/StructureDefinition/pco-goal-attainment-scaling","extension":[{"url":"level","valueCoding":{"system":"http://mtnlotus.com/uv/pco/CodeSystem/pco-gas-codes-temporary","code":"patient-gas-much-better-than-expected","display":"Much better than expected"}},{"url":"text","valueString":"Walk dog outside three times a week"}]},{"url":"http://mtnlotus.com/uv/pco/StructureDefinition/pco-goal-attainment-scaling","extension":[{"url":"level","valueCoding":{"system":"http://mtnlotus.com/uv/pco/CodeSystem/pco-gas-codes-temporary","code":"patient-gas-better-than-expected","display":"Better than expected"}},{"url":"text","valueString":"Walk dog outside twice a week"}]},{"url":"http://mtnlotus.com/uv/pco/StructureDefinition/pco-goal-attainment-scaling","extension":[{"url":"level","valueCoding":{"system":"http://mtnlotus.com/uv/pco/CodeSystem/pco-gas-codes-temporary","code":"patient-gas-expected-outcome","display":"Expected outcome"}},{"url":"text","valueString":"Walk dog outside once a week"}]},{"url":"http://mtnlotus.com/uv/pco/StructureDefinition/pco-goal-attainment-scaling","extension":[{"url":"level","valueCoding":{"system":"http://mtnlotus.com/uv/pco/CodeSystem/pco-gas-codes-temporary","code":"patient-gas-less-than-expected","display":"Less than expected"}},{"url":"text","valueString":"Does not walk dog but goes outside with dog"}]},{"url":"http://mtnlotus.com/uv/pco/StructureDefinition/pco-goal-attainment-scaling","extension":[{"url":"level","valueCoding":{"system":"http://mtnlotus.com/uv/pco/CodeSystem/pco-gas-codes-temporary","code":"patient-gas-much-less-than-expected","display":"Much less than expected"}},{"url":"text","valueString":"Unable to go outside with dog"}]}],"lifecycleStatus":"active","achievementStatus":{"coding":[{"system":"http://terminology.hl7.org/CodeSystem/goal-achievement","code":"in-progress"}]},"category":[{"coding":[{"system":"http://mtnlotus.com/uv/pco/CodeSystem/ncqa-goal-domains","code":"physical-function","display":"Physical Function"}]}],"description":{"text":"Walk dog outside once a week"},"subject":{"reference":"Patient/pcoPatientJones"},"startDate":"2024-04-03","target":[{"dueDate":"2024-09-30"}],"expressedBy":{"reference":"Patient/pcoPatientJones"},"addresses":[{"reference":"Observation/pcoWhatMattersBodyExample","display":"What Matters: Moving the Body"},{"reference":"Observation/pcoWhatMattersRelationshipsExample","display":"What Matters: Family & Friends"}]},"request":{"method":"PUT","url":"Goal/pcoGoalWalkDogExample"}},{"resource":{"resourceType":"ServiceRequest","id":"pcoMindfulnessSupportProgram","extension":[{"url":"http://hl7.org/fhir/StructureDefinition/resource-pertainsToGoal","valueReference":{"reference":"Goal/pcoGoalAnxietyExample"}}],"status":"active","intent":"plan","code":{"coding":[{"system":"http://snomed.info/sct","code":"1259023009","display":"Mindfulness Based Stress Reduction program (regime/therapy)"}]},"subject":{"reference":"Patient/pcoPatientLopez"},"occurrenceTiming":{"repeat":{"boundsPeriod":{"start":"2024-08-11","end":"2024-10-31"},"frequency":1,"periodUnit":"wk"}},"authoredOn":"2024-08-11","requester":{"reference":"Practitioner/pcoPractitionerAnderson"},"note":[{"text":"Trial of mindfulness coaching to support anxiety management"}]},"request":{"method":"PUT","url":"ServiceRequest/pcoMindfulnessSupportProgram"}},{"resource":{"resourceType":"Observation","id":"pcoPROMScoreAnxietyExample","status":"final","category":[{"coding":[{"system":"http://terminology.hl7.org/CodeSystem/observation-category","code":"survey"}]}],"code":{"coding":[{"system":"http://loinc.org","code":"70274-6","display":"Generalized anxiety disorder 7 item (GAD-7) total score"}]},"subject":{"reference":"Patient/pcoPatientLopez"},"focus":[{"reference":"Goal/pcoGoalAnxietyExample"}],"effectiveDateTime":"2024-09-19T13:15:00Z","performer":[{"reference":"Patient/pcoPatientLopez"}],"valueQuantity":{"value":10,"unit":"score","system":"http://unitsofmeasure.org","code":"{score}"}},"request":{"method":"PUT","url":"Observation/pcoPROMScoreAnxietyExample"}},{"resource":{"resourceType":"ServiceRequest","id":"pcoPhysicalTherapyReferral","extension":[{"url":"http://hl7.org/fhir/StructureDefinition/resource-pertainsToGoal","valueReference":{"reference":"Goal/pcoGoalWalkDogExample"}}],"status":"active","intent":"plan","code":{"coding":[{"system":"http://snomed.info/sct","code":"91251008","display":"Physical therapy procedure (regime/therapy)"}]},"subject":{"reference":"Patient/pcoPatientJones"},"occurrenceTiming":{"repeat":{"boundsPeriod":{"start":"2024-03-01","end":"2024-04-30"},"frequency":1,"periodUnit":"wk"}},"authoredOn":"2024-02-22","requester":{"reference":"Practitioner/pcoPractitionerAnderson"},"note":[{"text":"Trial of physical therapy focused on strengthening"}]},"request":{"method":"PUT","url":"ServiceRequest/pcoPhysicalTherapyReferral"}},{"resource":{"resourceType":"Observation","id":"pcoWhatMattersBodyExample","status":"final","category":[{"coding":[{"system":"http://terminology.hl7.org/CodeSystem/observation-category","code":"survey"}]}],"code":{"coding":[{"system":"http://mtnlotus.com/uv/pco/CodeSystem/va-whole-health","code":"body","display":"Moving the Body"}]},"subject":{"reference":"Patient/pcoPatientJones"},"effectiveDateTime":"2024-03-27T15:10:00Z","performer":[{"reference":"Patient/pcoPatientJones"}],"component":[{"code":{"coding":[{"system":"http://mtnlotus.com/uv/pco/CodeSystem/what-matters-rating","code":"now-rating"}]},"valueInteger":2},{"code":{"coding":[{"system":"http://mtnlotus.com/uv/pco/CodeSystem/what-matters-rating","code":"now-reasons"}]},"valueString":"My knee pain prevents me from walking."},{"code":{"coding":[{"system":"http://mtnlotus.com/uv/pco/CodeSystem/what-matters-rating","code":"future-rating"}]},"valueInteger":7}]},"request":{"method":"PUT","url":"Observation/pcoWhatMattersBodyExample"}},{"resource":{"resourceType":"CarePlan","id":"pcoAnxietyCarePlanExample","status":"active","intent":"plan","category":[{"coding":[{"system":"http://mtnlotus.com/uv/pco/CodeSystem/va-whole-health","code":"mind","display":"Power of the Mind"}]},{"coding":[{"system":"http://mtnlotus.com/uv/pco/CodeSystem/ncqa-goal-domains","code":"emotional-and-mental-health","display":"Emotional And Mental Health"}]},{"coding":[{"system":"http://hl7.org/fhir/us/core/CodeSystem/careplan-category","code":"assess-plan"}]}],"subject":{"reference":"Patient/pcoPatientLopez"},"period":{"start":"2024-08-11","end":"2025-01-31"},"goal":[{"reference":"Goal/pcoGoalAnxietyExample"}],"activity":[{"reference":{"reference":"ServiceRequest/pcoMindfulnessSupportProgram"}}]},"request":{"method":"PUT","url":"CarePlan/pcoAnxietyCarePlanExample"}}]}